Scenario,C,Charac,trials.thisRepN,trials.thisTrialN,trials.thisN,trials.thisIndex,trials_2.thisRepN,trials_2.thisTrialN,trials_2.thisN,trials_2.thisIndex,trials_3.thisRepN,trials_3.thisTrialN,trials_3.thisN,trials_3.thisIndex,trials_4.thisRepN,trials_4.thisTrialN,trials_4.thisN,trials_4.thisIndex,trials_5.thisRepN,trials_5.thisTrialN,trials_5.thisN,trials_5.thisIndex,IntroScreen.started,IntroScreen.stopped,instructions.started,instructions.stopped,scenario1.started,scenario1.stopped,notAtAll.started,notAtAll.stopped,veryMuch.started,veryMuch.stopped,lastRating,rating.response,rating.rt,rating.started,rating.stopped,riskBehaviorScaleScreen.started,riskBehaviorScaleScreen.stopped,activity.started,activity.stopped,notAtAll2.started,notAtAll2.stopped,ExtremelyLikely.started,ExtremelyLikely.stopped,rating_2.response,rating_2.rt,rating_2.started,rating_2.stopped,riskPerceptionInstructions.started,riskPerceptionInstructions.stopped,riskPerceptionActivity2.started,riskPerceptionActivity2.stopped,rating_4.response,rating_4.rt,rating_4.started,rating_4.stopped,notAtAllRisky.started,notAtAllRisky.stopped,ExtremelyRisky.started,ExtremelyRisky.stopped,ModeratelyRisky.started,ModeratelyRisky.stopped,expBenefits.started,expBenefits.stopped,riskBenefitsScale.started,riskBenefitsScale.stopped,noBenefits.started,noBenefits.stopped,rating_3.response,rating_3.rt,rating_3.started,rating_3.stopped,greatBenefits.started,greatBenefits.stopped,moderateBenefits.started,moderateBenefits.stopped,big5Screen.started,big5Screen.stopped,rating_5.response,rating_5.rt,rating_5.started,rating_5.stopped,characText.started,characText.stopped,Someone.started,Someone.stopped,disagreeStrongly.started,disagreeStrongly.stopped,disagreeALittle.started,disagreeALittle.stopped,Neutral.started,Neutral.stopped,AgreeALittle.started,AgreeALittle.stopped,AgreeStrongly.started,AgreeStrongly.stopped,congratsText.started,congratsText.stopped,participant,session,sex,age,date,expName,psychopyVersion,frameRate,
Finding your way back to a familiar area after realizing you have made a wrong turn and become lost while driving.,,,0,0,0,5,,,,,,,,,,,,,,,,,9.385971331999826,None,10.219816736000212,None,10.619449416999487,None,10.619449416999487,None,10.619449416999487,None,0.2,2,4.558,0.005703318400264834,None,,,,,,,,,,,,,,,,,,,,,,,,,,,,,,,,,,,,,,,,,,,,,,,,,,,,,,,,,,,,,,,,001,,,2020_Oct_27_1556,Big5,2020.2.4,59.96508904471478,
Finding your way to an appointment in an area of a city or town with which you are not familiar. ,,,0,1,1,7,,,,,,,,,,,,,,,,,,,,,15.185445369999798,None,15.185445369999798,None,15.185445369999798,None,0.2,2,0.519,0.013424538399704034,None,,,,,,,,,,,,,,,,,,,,,,,,,,,,,,,,,,,,,,,,,,,,,,,,,,,,,,,,,,,,,,,,001,,,2020_Oct_27_1556,Big5,2020.2.4,59.96508904471478,
Finding your way out of a complex arrangement of offices that you have visited for the first time.,,,0,2,2,1,,,,,,,,,,,,,,,,,,,,,15.736093878999782,None,15.736093878999782,None,15.736093878999782,None,0.2,2,0.503,0.0006855026995253866,None,,,,,,,,,,,,,,,,,,,,,,,,,,,,,,,,,,,,,,,,,,,,,,,,,,,,,,,,,,,,,,,,001,,,2020_Oct_27_1556,Big5,2020.2.4,59.96508904471478,
Finding your way around in an unfamiliar mall.,,,0,3,3,6,,,,,,,,,,,,,,,,,,,,,16.26991505099977,None,16.26991505099977,None,16.26991505099977,None,0.2,2,0.52,0.005492230700838263,None,,,,,,,,,,,,,,,,,,,,,,,,,,,,,,,,,,,,,,,,,,,,,,,,,,,,,,,,,,,,,,,,001,,,2020_Oct_27_1556,Big5,2020.2.4,59.96508904471478,
Trying a new route that you think will be a shortcut without the benefit of a map.,,,0,4,4,4,,,,,,,,,,,,,,,,,,,,,16.81950891499946,None,16.81950891499946,None,16.81950891499946,None,0.2,2,0.528,0.004224497700306529,None,,,,,,,,,,,,,,,,,,,,,,,,,,,,,,,,,,,,,,,,,,,,,,,,,,,,,,,,,,,,,,,,001,,,2020_Oct_27_1556,Big5,2020.2.4,59.96508904471478,
Leaving a store that you have been to for the first time and deciding which way to turn to get to a destination.,,,0,5,5,0,,,,,,,,,,,,,,,,,,,,,17.368769656999575,None,17.368769656999575,None,17.368769656999575,None,0.2,2,0.405,0.0012876667005912168,None,,,,,,,,,,,,,,,,,,,,,,,,,,,,,,,,,,,,,,,,,,,,,,,,,,,,,,,,,,,,,,,,001,,,2020_Oct_27_1556,Big5,2020.2.4,59.96508904471478,
Locating your car in a very large parking lot or parking garage.,,,0,6,6,3,,,,,,,,,,,,,,,,,,,,,17.802811759999713,None,17.802811759999713,None,17.802811759999713,None,0.2,2,0.472,0.0025326117010990856,None,,,,,,,,,,,,,,,,,,,,,,,,,,,,,,,,,,,,,,,,,,,,,,,,,,,,,,,,,,,,,,,,001,,,2020_Oct_27_1556,Big5,2020.2.4,59.96508904471478,
"Pointing in the direction of a place outside that someone wants to get to and has asked you for directions, when you are in a windowless room.",,,0,7,7,2,,,,,,,,,,,,,,,,,,,,,18.30248129499978,None,18.30248129499978,None,18.30248129499978,None,0.2,2,0.522,0.01645760940027685,None,,,,,,,,,,,,,,,,,,,,,,,,,,,,,,,,,,,,,,,,,,,,,,,,,,,,,,,,,,,,,,,,001,,,2020_Oct_27_1556,Big5,2020.2.4,59.96508904471478,
,Admitting that your tastes are different from those of your friends. (S),,,,,,0,0,0,0,,,,,,,,,,,,,,,,,,,,,,,,,,,,18.86819281099997,None,19.269326464000187,None,19.269326464000187,None,19.269326464000187,None,2,0.418,0.015939177400468907,None,,,,,,,,,,,,,,,,,,,,,,,,,,,,,,,,,,,,,,,,,,,,,,,,,,,,001,,,2020_Oct_27_1556,Big5,2020.2.4,59.96508904471478,
,"Going camping in the wilderness, beyond the civilization of a campground. (R) ",,,,,,0,1,1,1,,,,,,,,,,,,,,,,,,,,,,,,,,,,,,19.702291433000028,None,19.702291433000028,None,19.702291433000028,None,2,0.509,0.0019871606991728186,None,,,,,,,,,,,,,,,,,,,,,,,,,,,,,,,,,,,,,,,,,,,,,,,,,,,,001,,,2020_Oct_27_1556,Big5,2020.2.4,59.96508904471478,
,Betting a day's income at the horse races. (G),,,,,,0,2,2,2,,,,,,,,,,,,,,,,,,,,,,,,,,,,,,20.23651763199996,None,20.23651763199996,None,20.23651763199996,None,2,0.42,0.00022314470061246539,None,,,,,,,,,,,,,,,,,,,,,,,,,,,,,,,,,,,,,,,,,,,,,,,,,,,,001,,,2020_Oct_27_1556,Big5,2020.2.4,59.96508904471478,
,Buying an illegal drug for your own use. (H),,,,,,0,3,3,3,,,,,,,,,,,,,,,,,,,,,,,,,,,,,,20.68577841699971,None,20.68577841699971,None,20.68577841699971,None,2,0.405,0.0032358027001464507,None,,,,,,,,,,,,,,,,,,,,,,,,,,,,,,,,,,,,,,,,,,,,,,,,,,,,001,,,2020_Oct_27_1556,Big5,2020.2.4,59.96508904471478,
,Cheating on an exam. (E),,,,,,0,4,4,4,,,,,,,,,,,,,,,,,,,,,,,,,,,,,,21.119476932999532,None,21.119476932999532,None,21.119476932999532,None,2,0.41,0.00453039570038527,None,,,,,,,,,,,,,,,,,,,,,,,,,,,,,,,,,,,,,,,,,,,,,,,,,,,,001,,,2020_Oct_27_1556,Big5,2020.2.4,59.96508904471478,
,Chasing a tornado or hurricane by car to take dramatic photos. (R),,,,,,0,5,5,5,,,,,,,,,,,,,,,,,,,,,,,,,,,,,,21.55297826199967,None,21.55297826199967,None,21.55297826199967,None,2,0.41,0.006385046699506347,None,,,,,,,,,,,,,,,,,,,,,,,,,,,,,,,,,,,,,,,,,,,,,,,,,,,,001,,,2020_Oct_27_1556,Big5,2020.2.4,59.96508904471478,
,Investing 10% of your annual income in a moderate growth mutual fund. (I),,,,,,0,6,6,6,,,,,,,,,,,,,,,,,,,,,,,,,,,,,,21.986732298999414,None,21.986732298999414,None,21.986732298999414,None,2,0.521,0.015905885400570696,None,,,,,,,,,,,,,,,,,,,,,,,,,,,,,,,,,,,,,,,,,,,,,,,,,,,,001,,,2020_Oct_27_1556,Big5,2020.2.4,59.96508904471478,
,Consuming five or more servings of alcohol in a single evening. (H),,,,,,0,7,7,7,,,,,,,,,,,,,,,,,,,,,,,,,,,,,,22.53551679500015,None,22.53551679500015,None,22.53551679500015,None,2,0.422,0.0008640337009637733,None,,,,,,,,,,,,,,,,,,,,,,,,,,,,,,,,,,,,,,,,,,,,,,,,,,,,001,,,2020_Oct_27_1556,Big5,2020.2.4,59.96508904471478,
,Cheating by a significant amount on your income tax return. (E),,,,,,0,8,8,8,,,,,,,,,,,,,,,,,,,,,,,,,,,,,,22.985871387999396,None,22.985871387999396,None,22.985871387999396,None,2,0.493,0.006587734700588044,None,,,,,,,,,,,,,,,,,,,,,,,,,,,,,,,,,,,,,,,,,,,,,,,,,,,,001,,,2020_Oct_27_1556,Big5,2020.2.4,59.96508904471478,
,Disagreeing with your father on a major issue. (S),,,,,,0,9,9,9,,,,,,,,,,,,,,,,,,,,,,,,,,,,,,23.502428306999718,None,23.502428306999718,None,23.502428306999718,None,2,0.411,0.004281458700461371,None,,,,,,,,,,,,,,,,,,,,,,,,,,,,,,,,,,,,,,,,,,,,,,,,,,,,001,,,2020_Oct_27_1556,Big5,2020.2.4,59.96508904471478,
,Betting a day's income at a high stake poker game. (G),,,,,,0,10,10,10,,,,,,,,,,,,,,,,,,,,,,,,,,,,,,23.936704501999884,None,23.936704501999884,None,23.936704501999884,None,2,0.506,0.0029532197004300542,None,,,,,,,,,,,,,,,,,,,,,,,,,,,,,,,,,,,,,,,,,,,,,,,,,,,,001,,,2020_Oct_27_1556,Big5,2020.2.4,59.96508904471478,
,Having an affair with a married man or woman. (E),,,,,,0,11,11,11,,,,,,,,,,,,,,,,,,,,,,,,,,,,,,24.46915015600007,None,24.46915015600007,None,24.46915015600007,None,2,0.408,0.005452181701002701,None,,,,,,,,,,,,,,,,,,,,,,,,,,,,,,,,,,,,,,,,,,,,,,,,,,,,001,,,2020_Oct_27_1556,Big5,2020.2.4,59.96508904471478,
,Forging somebody's signature. (E),,,,,,0,12,12,12,,,,,,,,,,,,,,,,,,,,,,,,,,,,,,24.902274674000182,None,24.902274674000182,None,24.902274674000182,None,2,0.428,0.0057971826990979025,None,,,,,,,,,,,,,,,,,,,,,,,,,,,,,,,,,,,,,,,,,,,,,,,,,,,,001,,,2020_Oct_27_1556,Big5,2020.2.4,59.96508904471478,
,Passing off somebody else's work as your own. (E),,,,,,0,13,13,13,,,,,,,,,,,,,,,,,,,,,,,,,,,,,,25.352573383000163,None,25.352573383000163,None,25.352573383000163,None,2,0.41,0.005311464699843782,None,,,,,,,,,,,,,,,,,,,,,,,,,,,,,,,,,,,,,,,,,,,,,,,,,,,,001,,,2020_Oct_27_1556,Big5,2020.2.4,59.96508904471478,
,Going on a vacation in a third-world country without prearranged travel and hotel accommodations. (R),,,,,,0,14,14,14,,,,,,,,,,,,,,,,,,,,,,,,,,,,,,25.78575785799967,None,25.78575785799967,None,25.78575785799967,None,2,0.487,0.015776044399899547,None,,,,,,,,,,,,,,,,,,,,,,,,,,,,,,,,,,,,,,,,,,,,,,,,,,,,001,,,2020_Oct_27_1556,Big5,2020.2.4,59.96508904471478,
,Arguing with a friend about an issue on which he or she has a very different opinion. (S) ,,,,,,0,15,15,15,,,,,,,,,,,,,,,,,,,,,,,,,,,,,,26.30335033099982,None,26.30335033099982,None,26.30335033099982,None,2,0.408,0.003948884699639166,None,,,,,,,,,,,,,,,,,,,,,,,,,,,,,,,,,,,,,,,,,,,,,,,,,,,,001,,,2020_Oct_27_1556,Big5,2020.2.4,59.96508904471478,
,Going down a ski run that is beyond your ability or closed. (R),,,,,,0,16,16,16,,,,,,,,,,,,,,,,,,,,,,,,,,,,,,26.736591957999735,None,26.736591957999735,None,26.736591957999735,None,2,0.407,0.004087684699698002,None,,,,,,,,,,,,,,,,,,,,,,,,,,,,,,,,,,,,,,,,,,,,,,,,,,,,001,,,2020_Oct_27_1556,Big5,2020.2.4,59.96508904471478,
,Investing 5% of your annual income in a very speculative stock. (I),,,,,,0,17,17,17,,,,,,,,,,,,,,,,,,,,,,,,,,,,,,27.16988041500008,None,27.16988041500008,None,27.16988041500008,None,2,0.41,0.0036611227005778346,None,,,,,,,,,,,,,,,,,,,,,,,,,,,,,,,,,,,,,,,,,,,,,,,,,,,,001,,,2020_Oct_27_1556,Big5,2020.2.4,59.96508904471478,
,Approaching your boss to ask for a raise. (S),,,,,,0,18,18,18,,,,,,,,,,,,,,,,,,,,,,,,,,,,,,27.602728783000202,None,27.602728783000202,None,27.602728783000202,None,2,0.409,0.0047879527000986855,None,,,,,,,,,,,,,,,,,,,,,,,,,,,,,,,,,,,,,,,,,,,,,,,,,,,,001,,,2020_Oct_27_1556,Big5,2020.2.4,59.96508904471478,
,Illegally copying a piece of software. (E) ,,,,,,0,19,19,19,,,,,,,,,,,,,,,,,,,,,,,,,,,,,,28.036199762999786,None,28.036199762999786,None,28.036199762999786,None,2,0.642,0.0038509547002831823,None,,,,,,,,,,,,,,,,,,,,,,,,,,,,,,,,,,,,,,,,,,,,,,,,,,,,001,,,2020_Oct_27_1556,Big5,2020.2.4,59.96508904471478,
,Going whitewater rafting during rapid water flows in the spring. (R) ,,,,,,0,20,20,20,,,,,,,,,,,,,,,,,,,,,,,,,,,,,,28.70318826499988,None,28.70318826499988,None,28.70318826499988,None,2,0.539,0.0017316316998403636,None,,,,,,,,,,,,,,,,,,,,,,,,,,,,,,,,,,,,,,,,,,,,,,,,,,,,001,,,2020_Oct_27_1556,Big5,2020.2.4,59.96508904471478,
,"Betting a day's income on the outcome of a sporting event (e.g. baseball, soccer, or football). (G)",,,,,,0,21,21,21,,,,,,,,,,,,,,,,,,,,,,,,,,,,,,29.26942423699984,None,29.26942423699984,None,29.26942423699984,None,2,0.407,0.0030696657004227745,None,,,,,,,,,,,,,,,,,,,,,,,,,,,,,,,,,,,,,,,,,,,,,,,,,,,,001,,,2020_Oct_27_1556,Big5,2020.2.4,59.96508904471478,
,Telling a friend if his or her significant other has made a pass at you. (S),,,,,,0,22,22,22,,,,,,,,,,,,,,,,,,,,,,,,,,,,,,29.70271355800014,None,29.70271355800014,None,29.70271355800014,None,2,0.509,0.004008694701042259,None,,,,,,,,,,,,,,,,,,,,,,,,,,,,,,,,,,,,,,,,,,,,,,,,,,,,001,,,2020_Oct_27_1556,Big5,2020.2.4,59.96508904471478,
,Investing 5% of your annual income in an conservative stock. (I),,,,,,0,23,23,23,,,,,,,,,,,,,,,,,,,,,,,,,,,,,,30.23601029600013,None,30.23601029600013,None,30.23601029600013,None,2,0.404,0.0024869627004591166,None,,,,,,,,,,,,,,,,,,,,,,,,,,,,,,,,,,,,,,,,,,,,,,,,,,,,001,,,2020_Oct_27_1556,Big5,2020.2.4,59.96508904471478,
,Shoplifting a small item (e.g. a lipstick or a pen). (E) ,,,,,,0,24,24,24,,,,,,,,,,,,,,,,,,,,,,,,,,,,,,30.6696586879998,None,30.6696586879998,None,30.6696586879998,None,2,0.609,0.004896365700005845,None,,,,,,,,,,,,,,,,,,,,,,,,,,,,,,,,,,,,,,,,,,,,,,,,,,,,001,,,2020_Oct_27_1556,Big5,2020.2.4,59.96508904471478,
,Wearing provocative or unconventional clothes on occasion. (S),,,,,,0,25,25,25,,,,,,,,,,,,,,,,,,,,,,,,,,,,,,31.30258232899996,None,31.30258232899996,None,31.30258232899996,None,2,0.406,0.0026399257003504317,None,,,,,,,,,,,,,,,,,,,,,,,,,,,,,,,,,,,,,,,,,,,,,,,,,,,,001,,,2020_Oct_27_1556,Big5,2020.2.4,59.96508904471478,
,Engaging in unprotected sex. (H),,,,,,0,26,26,26,,,,,,,,,,,,,,,,,,,,,,,,,,,,,,31.735539471000266,None,31.735539471000266,None,31.735539471000266,None,2,0.531,0.008524083700649498,None,,,,,,,,,,,,,,,,,,,,,,,,,,,,,,,,,,,,,,,,,,,,,,,,,,,,001,,,2020_Oct_27_1556,Big5,2020.2.4,59.96508904471478,
,Stealing an additional TV cable connection off the one you pay for. (E) ,,,,,,0,27,27,27,,,,,,,,,,,,,,,,,,,,,,,,,,,,,,32.285706214999664,None,32.285706214999664,None,32.285706214999664,None,2,0.64,0.0010816467001859564,None,,,,,,,,,,,,,,,,,,,,,,,,,,,,,,,,,,,,,,,,,,,,,,,,,,,,001,,,2020_Oct_27_1556,Big5,2020.2.4,59.96508904471478,
,Not wearing a seatbelt when being a passenger in the front seat. (H),,,,,,0,28,28,28,,,,,,,,,,,,,,,,,,,,,,,,,,,,,,32.95287038399965,None,32.95287038399965,None,32.95287038399965,None,2,0.536,0.001115406699682353,None,,,,,,,,,,,,,,,,,,,,,,,,,,,,,,,,,,,,,,,,,,,,,,,,,,,,001,,,2020_Oct_27_1556,Big5,2020.2.4,59.96508904471478,
,Investing 10% of your annual income in governmental bonds (treasury bills). (I),,,,,,0,29,29,29,,,,,,,,,,,,,,,,,,,,,,,,,,,,,,33.51973098799954,None,33.51973098799954,None,33.51973098799954,None,2,0.409,0.003817890698883275,None,,,,,,,,,,,,,,,,,,,,,,,,,,,,,,,,,,,,,,,,,,,,,,,,,,,,001,,,2020_Oct_27_1556,Big5,2020.2.4,59.96508904471478,
,Periodically engaging in a dangerous sport (e.g. mountain climbing or sky diving). (R) ,,,,,,0,30,30,30,,,,,,,,,,,,,,,,,,,,,,,,,,,,,,33.95282351900005,None,33.95282351900005,None,33.95282351900005,None,2,0.431,0.0018445576997692115,None,,,,,,,,,,,,,,,,,,,,,,,,,,,,,,,,,,,,,,,,,,,,,,,,,,,,001,,,2020_Oct_27_1556,Big5,2020.2.4,59.96508904471478,
,Not wearing a helmet when riding a motorcycle. (H),,,,,,0,31,31,31,,,,,,,,,,,,,,,,,,,,,,,,,,,,,,34.41957511599958,None,34.41957511599958,None,34.41957511599958,None,2,0.541,0.0030229396998038283,None,,,,,,,,,,,,,,,,,,,,,,,,,,,,,,,,,,,,,,,,,,,,,,,,,,,,001,,,2020_Oct_27_1556,Big5,2020.2.4,59.96508904471478,
,Gambling a week's income at a casino. (G),,,,,,0,32,32,32,,,,,,,,,,,,,,,,,,,,,,,,,,,,,,34.986211237000134,None,34.986211237000134,None,34.986211237000134,None,2,0.613,0.006957571700695553,None,,,,,,,,,,,,,,,,,,,,,,,,,,,,,,,,,,,,,,,,,,,,,,,,,,,,001,,,2020_Oct_27_1556,Big5,2020.2.4,59.96508904471478,
,Taking a job that you enjoy over one that is prestigious but less enjoyable. (S),,,,,,0,33,33,33,,,,,,,,,,,,,,,,,,,,,,,,,,,,,,35.6194524069997,None,35.6194524069997,None,35.6194524069997,None,2,0.611,0.005621677700219152,None,,,,,,,,,,,,,,,,,,,,,,,,,,,,,,,,,,,,,,,,,,,,,,,,,,,,001,,,2020_Oct_27_1556,Big5,2020.2.4,59.96508904471478,
,Defending an unpopular issue that you believe in at a social occasion. (S),,,,,,0,34,34,34,,,,,,,,,,,,,,,,,,,,,,,,,,,,,,36.25187356399965,None,36.25187356399965,None,36.25187356399965,None,2,0.421,0.0016420437004853738,None,,,,,,,,,,,,,,,,,,,,,,,,,,,,,,,,,,,,,,,,,,,,,,,,,,,,001,,,2020_Oct_27_1556,Big5,2020.2.4,59.96508904471478,
,Exposing yourself to the sun without using sunscreen. (H),,,,,,0,35,35,35,,,,,,,,,,,,,,,,,,,,,,,,,,,,,,36.702861341000244,None,36.702861341000244,None,36.702861341000244,None,2,0.543,0.0024091067007248057,None,,,,,,,,,,,,,,,,,,,,,,,,,,,,,,,,,,,,,,,,,,,,,,,,,,,,001,,,2020_Oct_27_1556,Big5,2020.2.4,59.96508904471478,
,Trying out bungee jumping at least once. (R),,,,,,0,36,36,36,,,,,,,,,,,,,,,,,,,,,,,,,,,,,,37.285838699000124,None,37.285838699000124,None,37.285838699000124,None,2,0.409,0.004804872699423868,None,,,,,,,,,,,,,,,,,,,,,,,,,,,,,,,,,,,,,,,,,,,,,,,,,,,,001,,,2020_Oct_27_1556,Big5,2020.2.4,59.96508904471478,
,"Piloting your own small plane, if you could. (R) ",,,,,,0,37,37,37,,,,,,,,,,,,,,,,,,,,,,,,,,,,,,37.719522870999754,None,37.719522870999754,None,37.719522870999754,None,2,0.544,0.007764617700559029,None,,,,,,,,,,,,,,,,,,,,,,,,,,,,,,,,,,,,,,,,,,,,,,,,,,,,001,,,2020_Oct_27_1556,Big5,2020.2.4,59.96508904471478,
,Walking home alone at night in a somewhat unsafe area of town. (H),,,,,,0,38,38,38,,,,,,,,,,,,,,,,,,,,,,,,,,,,,,38.28564511900004,None,38.28564511900004,None,38.28564511900004,None,2,0.406,0.001119976700465486,None,,,,,,,,,,,,,,,,,,,,,,,,,,,,,,,,,,,,,,,,,,,,,,,,,,,,001,,,2020_Oct_27_1556,Big5,2020.2.4,59.96508904471478,
,Regularly eating high cholesterol foods. (H) ,,,,,,0,39,39,39,,,,,,,,,,,,,,,,,,,,,,,,,,,,,,38.71886021699993,None,38.71886021699993,None,38.71886021699993,None,2,0.525,0.005693881700608472,None,,,,,,,,,,,,,,,,,,,,,,,,,,,,,,,,,,,,,,,,,,,,,,,,,,,,001,,,2020_Oct_27_1556,Big5,2020.2.4,59.96508904471478,
,Admitting that your tastes are different from those of your friends. (S),,,,,,,,,,0,0,0,0,,,,,,,,,,,,,,,,,,,,,,,,,,,,,,,,,,,,39.3198053899996,None,39.571016969000084,None,2,1.89,0.00038617470090684947,None,39.571016969000084,None,39.571016969000084,None,39.571016969000084,None,,,,,,,,,,,,,,,,,,,,,,,,,,,,,,,,,,,,,,001,,,2020_Oct_27_1556,Big5,2020.2.4,59.96508904471478,
,"Going camping in the wilderness, beyond the civilization of a campground. (R) ",,,,,,,,,,0,1,1,1,,,,,,,,,,,,,,,,,,,,,,,,,,,,,,,,,,,,,,41.485804207999536,None,2,0.48,0.002564169701145147,None,41.485804207999536,None,41.485804207999536,None,41.485804207999536,None,,,,,,,,,,,,,,,,,,,,,,,,,,,,,,,,,,,,,,001,,,2020_Oct_27_1556,Big5,2020.2.4,59.96508904471478,
,Betting a day's income at the horse races. (G),,,,,,,,,,0,2,2,2,,,,,,,,,,,,,,,,,,,,,,,,,,,,,,,,,,,,,,42.00186878899967,None,2,0.594,0.0040471746997354785,None,42.00186878899967,None,42.00186878899967,None,42.00186878899967,None,,,,,,,,,,,,,,,,,,,,,,,,,,,,,,,,,,,,,,001,,,2020_Oct_27_1556,Big5,2020.2.4,59.96508904471478,
,Buying an illegal drug for your own use. (H),,,,,,,,,,0,3,3,3,,,,,,,,,,,,,,,,,,,,,,,,,,,,,,,,,,,,,,42.618947126999956,None,2,0.562,0.004173472701040737,None,42.618947126999956,None,42.618947126999956,None,42.618947126999956,None,,,,,,,,,,,,,,,,,,,,,,,,,,,,,,,,,,,,,,001,,,2020_Oct_27_1556,Big5,2020.2.4,59.96508904471478,
,Cheating on an exam. (E),,,,,,,,,,0,4,4,4,,,,,,,,,,,,,,,,,,,,,,,,,,,,,,,,,,,,,,43.219457329999386,None,2,0.492,0.006244523700843274,None,43.219457329999386,None,43.219457329999386,None,43.219457329999386,None,,,,,,,,,,,,,,,,,,,,,,,,,,,,,,,,,,,,,,001,,,2020_Oct_27_1556,Big5,2020.2.4,59.96508904471478,
,Chasing a tornado or hurricane by car to take dramatic photos. (R),,,,,,,,,,0,5,5,5,,,,,,,,,,,,,,,,,,,,,,,,,,,,,,,,,,,,,,43.735895816000266,None,2,0.491,0.0027799566996691283,None,43.735895816000266,None,43.735895816000266,None,43.735895816000266,None,,,,,,,,,,,,,,,,,,,,,,,,,,,,,,,,,,,,,,001,,,2020_Oct_27_1556,Big5,2020.2.4,59.96508904471478,
,Investing 10% of your annual income in a moderate growth mutual fund. (I),,,,,,,,,,0,6,6,6,,,,,,,,,,,,,,,,,,,,,,,,,,,,,,,,,,,,,,44.25165425399973,None,2,0.523,0.0009004447001643712,None,44.25165425399973,None,44.25165425399973,None,44.25165425399973,None,,,,,,,,,,,,,,,,,,,,,,,,,,,,,,,,,,,,,,001,,,2020_Oct_27_1556,Big5,2020.2.4,59.96508904471478,
,Consuming five or more servings of alcohol in a single evening. (H),,,,,,,,,,0,7,7,7,,,,,,,,,,,,,,,,,,,,,,,,,,,,,,,,,,,,,,44.80208497500007,None,2,0.443,0.00417261270013114,None,44.80208497500007,None,44.80208497500007,None,44.80208497500007,None,,,,,,,,,,,,,,,,,,,,,,,,,,,,,,,,,,,,,,001,,,2020_Oct_27_1556,Big5,2020.2.4,59.96508904471478,
,Cheating by a significant amount on your income tax return. (E),,,,,,,,,,0,8,8,8,,,,,,,,,,,,,,,,,,,,,,,,,,,,,,,,,,,,,,45.28524420600024,None,2,0.41,0.003016271699380013,None,45.28524420600024,None,45.28524420600024,None,45.28524420600024,None,,,,,,,,,,,,,,,,,,,,,,,,,,,,,,,,,,,,,,001,,,2020_Oct_27_1556,Big5,2020.2.4,59.96508904471478,
,Disagreeing with your father on a major issue. (S),,,,,,,,,,0,9,9,9,,,,,,,,,,,,,,,,,,,,,,,,,,,,,,,,,,,,,,45.719264755999575,None,2,0.521,0.003607052700317581,None,45.719264755999575,None,45.719264755999575,None,45.719264755999575,None,,,,,,,,,,,,,,,,,,,,,,,,,,,,,,,,,,,,,,001,,,2020_Oct_27_1556,Big5,2020.2.4,59.96508904471478,
,Betting a day's income at a high stake poker game. (G),,,,,,,,,,0,10,10,10,,,,,,,,,,,,,,,,,,,,,,,,,,,,,,,,,,,,,,46.26873466399957,None,2,0.765,0.006331998700261465,None,46.26873466399957,None,46.26873466399957,None,46.26873466399957,None,,,,,,,,,,,,,,,,,,,,,,,,,,,,,,,,,,,,,,001,,,2020_Oct_27_1556,Big5,2020.2.4,59.96508904471478,
,Having an affair with a married man or woman. (E),,,,,,,,,,0,11,11,11,,,,,,,,,,,,,,,,,,,,,,,,,,,,,,,,,,,,,,47.06933715699961,None,2,0.51,0.005105086700496031,None,47.06933715699961,None,47.06933715699961,None,47.06933715699961,None,,,,,,,,,,,,,,,,,,,,,,,,,,,,,,,,,,,,,,001,,,2020_Oct_27_1556,Big5,2020.2.4,59.96508904471478,
,Forging somebody's signature. (E),,,,,,,,,,0,12,12,12,,,,,,,,,,,,,,,,,,,,,,,,,,,,,,,,,,,,,,47.60250119600005,None,2,0.469,0.0038791417000538786,None,47.60250119600005,None,47.60250119600005,None,47.60250119600005,None,,,,,,,,,,,,,,,,,,,,,,,,,,,,,,,,,,,,,,001,,,2020_Oct_27_1556,Big5,2020.2.4,59.96508904471478,
,Passing off somebody else's work as your own. (E),,,,,,,,,,0,13,13,13,,,,,,,,,,,,,,,,,,,,,,,,,,,,,,,,,,,,,,48.10211930599962,None,2,0.542,0.0033329326997773023,None,48.10211930599962,None,48.10211930599962,None,48.10211930599962,None,,,,,,,,,,,,,,,,,,,,,,,,,,,,,,,,,,,,,,001,,,2020_Oct_27_1556,Big5,2020.2.4,59.96508904471478,
,Going on a vacation in a third-world country without prearranged travel and hotel accommodations. (R),,,,,,,,,,0,14,14,14,,,,,,,,,,,,,,,,,,,,,,,,,,,,,,,,,,,,,,48.66881122999985,None,2,0.41,0.004867432699938945,None,48.66881122999985,None,48.66881122999985,None,48.66881122999985,None,,,,,,,,,,,,,,,,,,,,,,,,,,,,,,,,,,,,,,001,,,2020_Oct_27_1556,Big5,2020.2.4,59.96508904471478,
,Arguing with a friend about an issue on which he or she has a very different opinion. (S) ,,,,,,,,,,0,15,15,15,,,,,,,,,,,,,,,,,,,,,,,,,,,,,,,,,,,,,,49.10247809500015,None,2,0.439,0.001520396700470883,None,49.10247809500015,None,49.10247809500015,None,49.10247809500015,None,,,,,,,,,,,,,,,,,,,,,,,,,,,,,,,,,,,,,,001,,,2020_Oct_27_1556,Big5,2020.2.4,59.96508904471478,
,Going down a ski run that is beyond your ability or closed. (R),,,,,,,,,,0,16,16,16,,,,,,,,,,,,,,,,,,,,,,,,,,,,,,,,,,,,,,49.56868732699968,None,2,0.41,0.004949501701048575,None,49.56868732699968,None,49.56868732699968,None,49.56868732699968,None,,,,,,,,,,,,,,,,,,,,,,,,,,,,,,,,,,,,,,001,,,2020_Oct_27_1556,Big5,2020.2.4,59.96508904471478,
,Investing 5% of your annual income in a very speculative stock. (I),,,,,,,,,,0,17,17,17,,,,,,,,,,,,,,,,,,,,,,,,,,,,,,,,,,,,,,50.002950766999675,None,2,0.875,0.005257421700662235,None,50.002950766999675,None,50.002950766999675,None,50.002950766999675,None,,,,,,,,,,,,,,,,,,,,,,,,,,,,,,,,,,,,,,001,,,2020_Oct_27_1556,Big5,2020.2.4,59.96508904471478,
,Approaching your boss to ask for a raise. (S),,,,,,,,,,0,18,18,18,,,,,,,,,,,,,,,,,,,,,,,,,,,,,,,,,,,,,,50.902907353000046,None,2,0.622,0.006278188699070597,None,50.902907353000046,None,50.902907353000046,None,50.902907353000046,None,,,,,,,,,,,,,,,,,,,,,,,,,,,,,,,,,,,,,,001,,,2020_Oct_27_1556,Big5,2020.2.4,59.96508904471478,
,Illegally copying a piece of software. (E) ,,,,,,,,,,0,19,19,19,,,,,,,,,,,,,,,,,,,,,,,,,,,,,,,,,,,,,,51.55178086500018,None,2,1.931,0.009214840701133653,None,51.55178086500018,None,51.55178086500018,None,51.55178086500018,None,,,,,,,,,,,,,,,,,,,,,,,,,,,,,,,,,,,,,,001,,,2020_Oct_27_1556,Big5,2020.2.4,59.96508904471478,
,Going whitewater rafting during rapid water flows in the spring. (R) ,,,,,,,,,,0,20,20,20,,,,,,,,,,,,,,,,,,,,,,,,,,,,,,,,,,,,,,53.50188312099999,None,2,0.478,0.002442524699290516,None,53.50188312099999,None,53.50188312099999,None,53.50188312099999,None,,,,,,,,,,,,,,,,,,,,,,,,,,,,,,,,,,,,,,001,,,2020_Oct_27_1556,Big5,2020.2.4,59.96508904471478,
,"Betting a day's income on the outcome of a sporting event (e.g. baseball, soccer, or football). (G)",,,,,,,,,,0,21,21,21,,,,,,,,,,,,,,,,,,,,,,,,,,,,,,,,,,,,,,54.01956742999937,None,2,0.408,0.0027445927007647697,None,54.01956742999937,None,54.01956742999937,None,54.01956742999937,None,,,,,,,,,,,,,,,,,,,,,,,,,,,,,,,,,,,,,,001,,,2020_Oct_27_1556,Big5,2020.2.4,59.96508904471478,
,Telling a friend if his or her significant other has made a pass at you. (S),,,,,,,,,,0,22,22,22,,,,,,,,,,,,,,,,,,,,,,,,,,,,,,,,,,,,,,54.45165191999968,None,2,0.577,0.0028041507002853905,None,54.45165191999968,None,54.45165191999968,None,54.45165191999968,None,,,,,,,,,,,,,,,,,,,,,,,,,,,,,,,,,,,,,,001,,,2020_Oct_27_1556,Big5,2020.2.4,59.96508904471478,
,Investing 5% of your annual income in an conservative stock. (I),,,,,,,,,,0,23,23,23,,,,,,,,,,,,,,,,,,,,,,,,,,,,,,,,,,,,,,55.069485500000155,None,2,0.624,0.0046214097001211485,None,55.069485500000155,None,55.069485500000155,None,55.069485500000155,None,,,,,,,,,,,,,,,,,,,,,,,,,,,,,,,,,,,,,,001,,,2020_Oct_27_1556,Big5,2020.2.4,59.96508904471478,
,Shoplifting a small item (e.g. a lipstick or a pen). (E) ,,,,,,,,,,0,24,24,24,,,,,,,,,,,,,,,,,,,,,,,,,,,,,,,,,,,,,,55.718864370999654,None,2,0.41,0.005235333700511546,None,55.718864370999654,None,55.718864370999654,None,55.718864370999654,None,,,,,,,,,,,,,,,,,,,,,,,,,,,,,,,,,,,,,,001,,,2020_Oct_27_1556,Big5,2020.2.4,59.96508904471478,
,Wearing provocative or unconventional clothes on occasion. (S),,,,,,,,,,0,25,25,25,,,,,,,,,,,,,,,,,,,,,,,,,,,,,,,,,,,,,,56.152318598999955,None,2,0.606,0.0019742726999538718,None,56.152318598999955,None,56.152318598999955,None,56.152318598999955,None,,,,,,,,,,,,,,,,,,,,,,,,,,,,,,,,,,,,,,001,,,2020_Oct_27_1556,Big5,2020.2.4,59.96508904471478,
,Engaging in unprotected sex. (H),,,,,,,,,,0,26,26,26,,,,,,,,,,,,,,,,,,,,,,,,,,,,,,,,,,,,,,56.78492637799991,None,2,0.41,0.005774211700554588,None,56.78492637799991,None,56.78492637799991,None,56.78492637799991,None,,,,,,,,,,,,,,,,,,,,,,,,,,,,,,,,,,,,,,001,,,2020_Oct_27_1556,Big5,2020.2.4,59.96508904471478,
,Stealing an additional TV cable connection off the one you pay for. (E) ,,,,,,,,,,0,27,27,27,,,,,,,,,,,,,,,,,,,,,,,,,,,,,,,,,,,,,,57.218527844000164,None,2,0.538,0.0022279567001532996,None,57.218527844000164,None,57.218527844000164,None,57.218527844000164,None,,,,,,,,,,,,,,,,,,,,,,,,,,,,,,,,,,,,,,001,,,2020_Oct_27_1556,Big5,2020.2.4,59.96508904471478,
,Not wearing a seatbelt when being a passenger in the front seat. (H),,,,,,,,,,0,28,28,28,,,,,,,,,,,,,,,,,,,,,,,,,,,,,,,,,,,,,,57.785770458000115,None,2,0.41,0.003947012701246422,None,57.785770458000115,None,57.785770458000115,None,57.785770458000115,None,,,,,,,,,,,,,,,,,,,,,,,,,,,,,,,,,,,,,,001,,,2020_Oct_27_1556,Big5,2020.2.4,59.96508904471478,
,Investing 10% of your annual income in governmental bonds (treasury bills). (I),,,,,,,,,,0,29,29,29,,,,,,,,,,,,,,,,,,,,,,,,,,,,,,,,,,,,,,58.21830275699995,None,2,0.591,0.0023468587005481822,None,58.21830275699995,None,58.21830275699995,None,58.21830275699995,None,,,,,,,,,,,,,,,,,,,,,,,,,,,,,,,,,,,,,,001,,,2020_Oct_27_1556,Big5,2020.2.4,59.96508904471478,
,Periodically engaging in a dangerous sport (e.g. mountain climbing or sky diving). (R) ,,,,,,,,,,0,30,30,30,,,,,,,,,,,,,,,,,,,,,,,,,,,,,,,,,,,,,,58.83578220100026,None,2,0.421,0.002071056700515328,None,58.83578220100026,None,58.83578220100026,None,58.83578220100026,None,,,,,,,,,,,,,,,,,,,,,,,,,,,,,,,,,,,,,,001,,,2020_Oct_27_1556,Big5,2020.2.4,59.96508904471478,
,Not wearing a helmet when riding a motorcycle. (H),,,,,,,,,,0,31,31,31,,,,,,,,,,,,,,,,,,,,,,,,,,,,,,,,,,,,,,59.28513472600025,None,2,0.402,0.0025814956998146954,None,59.28513472600025,None,59.28513472600025,None,59.28513472600025,None,,,,,,,,,,,,,,,,,,,,,,,,,,,,,,,,,,,,,,001,,,2020_Oct_27_1556,Big5,2020.2.4,59.96508904471478,
,Gambling a week's income at a casino. (G),,,,,,,,,,0,32,32,32,,,,,,,,,,,,,,,,,,,,,,,,,,,,,,,,,,,,,,59.71829325699946,None,2,0.662,0.009204557700286387,None,59.71829325699946,None,59.71829325699946,None,59.71829325699946,None,,,,,,,,,,,,,,,,,,,,,,,,,,,,,,,,,,,,,,001,,,2020_Oct_27_1556,Big5,2020.2.4,59.96508904471478,
,Taking a job that you enjoy over one that is prestigious but less enjoyable. (S),,,,,,,,,,0,33,33,33,,,,,,,,,,,,,,,,,,,,,,,,,,,,,,,,,,,,,,60.401569636000204,None,2,0.403,0.0013122267009748612,None,60.401569636000204,None,60.401569636000204,None,60.401569636000204,None,,,,,,,,,,,,,,,,,,,,,,,,,,,,,,,,,,,,,,001,,,2020_Oct_27_1556,Big5,2020.2.4,59.96508904471478,
,Defending an unpopular issue that you believe in at a social occasion. (S),,,,,,,,,,0,34,34,34,,,,,,,,,,,,,,,,,,,,,,,,,,,,,,,,,,,,,,60.834615245999885,None,2,0.608,0.003487135700197541,None,60.834615245999885,None,60.834615245999885,None,60.834615245999885,None,,,,,,,,,,,,,,,,,,,,,,,,,,,,,,,,,,,,,,001,,,2020_Oct_27_1556,Big5,2020.2.4,59.96508904471478,
,Exposing yourself to the sun without using sunscreen. (H),,,,,,,,,,0,35,35,35,,,,,,,,,,,,,,,,,,,,,,,,,,,,,,,,,,,,,,61.4688266080002,None,2,0.413,0.00662452669985214,None,61.4688266080002,None,61.4688266080002,None,61.4688266080002,None,,,,,,,,,,,,,,,,,,,,,,,,,,,,,,,,,,,,,,001,,,2020_Oct_27_1556,Big5,2020.2.4,59.96508904471478,
,Trying out bungee jumping at least once. (R),,,,,,,,,,0,36,36,36,,,,,,,,,,,,,,,,,,,,,,,,,,,,,,,,,,,,,,61.90137436199984,None,2,0.632,0.003931407700292766,None,61.90137436199984,None,61.90137436199984,None,61.90137436199984,None,,,,,,,,,,,,,,,,,,,,,,,,,,,,,,,,,,,,,,001,,,2020_Oct_27_1556,Big5,2020.2.4,59.96508904471478,
,"Piloting your own small plane, if you could. (R) ",,,,,,,,,,0,37,37,37,,,,,,,,,,,,,,,,,,,,,,,,,,,,,,,,,,,,,,62.56809781999982,None,2,0.408,0.003171080700667517,None,62.56809781999982,None,62.56809781999982,None,62.56809781999982,None,,,,,,,,,,,,,,,,,,,,,,,,,,,,,,,,,,,,,,001,,,2020_Oct_27_1556,Big5,2020.2.4,59.96508904471478,
,Walking home alone at night in a somewhat unsafe area of town. (H),,,,,,,,,,0,38,38,38,,,,,,,,,,,,,,,,,,,,,,,,,,,,,,,,,,,,,,63.00121940400004,None,2,0.407,0.0015908237010080484,None,63.00121940400004,None,63.00121940400004,None,63.00121940400004,None,,,,,,,,,,,,,,,,,,,,,,,,,,,,,,,,,,,,,,001,,,2020_Oct_27_1556,Big5,2020.2.4,59.96508904471478,
,Regularly eating high cholesterol foods. (H) ,,,,,,,,,,0,39,39,39,,,,,,,,,,,,,,,,,,,,,,,,,,,,,,,,,,,,,,63.43507935599973,None,2,0.661,0.004158013700362062,None,63.43507935599973,None,63.43507935599973,None,63.43507935599973,None,,,,,,,,,,,,,,,,,,,,,,,,,,,,,,,,,,,,,,001,,,2020_Oct_27_1556,Big5,2020.2.4,59.96508904471478,
,Admitting that your tastes are different from those of your friends. (S),,,,,,,,,,,,,,0,0,0,0,,,,,,,,,,,,,,,,,,,,,,,,,,,,,,,,,,,,,,,,,,,,,,64.18450238900004,None,64.48495603699939,None,64.48495603699939,None,2,2.722,0.015156709400798718,None,64.48495603699939,None,64.48495603699939,None,,,,,,,,,,,,,,,,,,,,,,,,001,,,2020_Oct_27_1556,Big5,2020.2.4,59.96508904471478,
,"Going camping in the wilderness, beyond the civilization of a campground. (R) ",,,,,,,,,,,,,,0,1,1,1,,,,,,,,,,,,,,,,,,,,,,,,,,,,,,,,,,,,,,,,,,,,,,,,67.21867657500025,None,67.21867657500025,None,2,1.374,0.002808807700603211,None,67.21867657500025,None,67.21867657500025,None,,,,,,,,,,,,,,,,,,,,,,,,001,,,2020_Oct_27_1556,Big5,2020.2.4,59.96508904471478,
,Betting a day's income at the horse races. (G),,,,,,,,,,,,,,0,2,2,2,,,,,,,,,,,,,,,,,,,,,,,,,,,,,,,,,,,,,,,,,,,,,,,,68.61806994499966,None,68.61806994499966,None,2,0.428,0.004701457701230538,None,68.61806994499966,None,68.61806994499966,None,,,,,,,,,,,,,,,,,,,,,,,,001,,,2020_Oct_27_1556,Big5,2020.2.4,59.96508904471478,
,Buying an illegal drug for your own use. (H),,,,,,,,,,,,,,0,3,3,3,,,,,,,,,,,,,,,,,,,,,,,,,,,,,,,,,,,,,,,,,,,,,,,,69.068568314,None,69.068568314,None,2,0.411,0.005471710700476251,None,69.068568314,None,69.068568314,None,,,,,,,,,,,,,,,,,,,,,,,,001,,,2020_Oct_27_1556,Big5,2020.2.4,59.96508904471478,
,Cheating on an exam. (E),,,,,,,,,,,,,,0,4,4,4,,,,,,,,,,,,,,,,,,,,,,,,,,,,,,,,,,,,,,,,,,,,,,,,69.50099320699974,None,69.50099320699974,None,2,0.611,0.005816317700919171,None,69.50099320699974,None,69.50099320699974,None,,,,,,,,,,,,,,,,,,,,,,,,001,,,2020_Oct_27_1556,Big5,2020.2.4,59.96508904471478,
,Chasing a tornado or hurricane by car to take dramatic photos. (R),,,,,,,,,,,,,,0,5,5,5,,,,,,,,,,,,,,,,,,,,,,,,,,,,,,,,,,,,,,,,,,,,,,,,70.13512197199998,None,70.13512197199998,None,2,0.409,0.005006710700399708,None,70.13512197199998,None,70.13512197199998,None,,,,,,,,,,,,,,,,,,,,,,,,001,,,2020_Oct_27_1556,Big5,2020.2.4,59.96508904471478,
,Investing 10% of your annual income in a moderate growth mutual fund. (I),,,,,,,,,,,,,,0,6,6,6,,,,,,,,,,,,,,,,,,,,,,,,,,,,,,,,,,,,,,,,,,,,,,,,70.56831077100014,None,70.56831077100014,None,2,0.577,0.003526370701365522,None,70.56831077100014,None,70.56831077100014,None,,,,,,,,,,,,,,,,,,,,,,,,001,,,2020_Oct_27_1556,Big5,2020.2.4,59.96508904471478,
,Consuming five or more servings of alcohol in a single evening. (H),,,,,,,,,,,,,,0,7,7,7,,,,,,,,,,,,,,,,,,,,,,,,,,,,,,,,,,,,,,,,,,,,,,,,71.16759481200006,None,71.16759481200006,None,2,0.406,0.002003774699915084,None,71.16759481200006,None,71.16759481200006,None,,,,,,,,,,,,,,,,,,,,,,,,001,,,2020_Oct_27_1556,Big5,2020.2.4,59.96508904471478,
,Cheating by a significant amount on your income tax return. (E),,,,,,,,,,,,,,0,8,8,8,,,,,,,,,,,,,,,,,,,,,,,,,,,,,,,,,,,,,,,,,,,,,,,,71.60050616499939,None,71.60050616499939,None,2,0.407,0.001072078700417478,None,71.60050616499939,None,71.60050616499939,None,,,,,,,,,,,,,,,,,,,,,,,,001,,,2020_Oct_27_1556,Big5,2020.2.4,59.96508904471478,
,Disagreeing with your father on a major issue. (S),,,,,,,,,,,,,,0,9,9,9,,,,,,,,,,,,,,,,,,,,,,,,,,,,,,,,,,,,,,,,,,,,,,,,72.03480855699945,None,72.03480855699945,None,2,0.558,0.0021958447014185367,None,72.03480855699945,None,72.03480855699945,None,,,,,,,,,,,,,,,,,,,,,,,,001,,,2020_Oct_27_1556,Big5,2020.2.4,59.96508904471478,
,Betting a day's income at a high stake poker game. (G),,,,,,,,,,,,,,0,10,10,10,,,,,,,,,,,,,,,,,,,,,,,,,,,,,,,,,,,,,,,,,,,,,,,,72.61829351899996,None,72.61829351899996,None,2,0.406,0.0022944357006053906,None,72.61829351899996,None,72.61829351899996,None,,,,,,,,,,,,,,,,,,,,,,,,001,,,2020_Oct_27_1556,Big5,2020.2.4,59.96508904471478,
,Having an affair with a married man or woman. (E),,,,,,,,,,,,,,0,11,11,11,,,,,,,,,,,,,,,,,,,,,,,,,,,,,,,,,,,,,,,,,,,,,,,,73.05148428899975,None,73.05148428899975,None,2,0.54,0.0020263496999177733,None,73.05148428899975,None,73.05148428899975,None,,,,,,,,,,,,,,,,,,,,,,,,001,,,2020_Oct_27_1556,Big5,2020.2.4,59.96508904471478,
,Forging somebody's signature. (E),,,,,,,,,,,,,,0,12,12,12,,,,,,,,,,,,,,,,,,,,,,,,,,,,,,,,,,,,,,,,,,,,,,,,73.61779881700022,None,73.61779881700022,None,2,0.411,0.006661597700258426,None,73.61779881700022,None,73.61779881700022,None,,,,,,,,,,,,,,,,,,,,,,,,001,,,2020_Oct_27_1556,Big5,2020.2.4,59.96508904471478,
,Passing off somebody else's work as your own. (E),,,,,,,,,,,,,,0,13,13,13,,,,,,,,,,,,,,,,,,,,,,,,,,,,,,,,,,,,,,,,,,,,,,,,74.05135367099956,None,74.05135367099956,None,2,0.509,0.0034753137006191537,None,74.05135367099956,None,74.05135367099956,None,,,,,,,,,,,,,,,,,,,,,,,,001,,,2020_Oct_27_1556,Big5,2020.2.4,59.96508904471478,
,Going on a vacation in a third-world country without prearranged travel and hotel accommodations. (R),,,,,,,,,,,,,,0,14,14,14,,,,,,,,,,,,,,,,,,,,,,,,,,,,,,,,,,,,,,,,,,,,,,,,74.5842191769998,None,74.5842191769998,None,2,0.405,0.016514087399627897,None,74.5842191769998,None,74.5842191769998,None,,,,,,,,,,,,,,,,,,,,,,,,001,,,2020_Oct_27_1556,Big5,2020.2.4,59.96508904471478,
,Arguing with a friend about an issue on which he or she has a very different opinion. (S) ,,,,,,,,,,,,,,0,15,15,15,,,,,,,,,,,,,,,,,,,,,,,,,,,,,,,,,,,,,,,,,,,,,,,,75.01768717699997,None,75.01768717699997,None,2,0.575,0.0012927556999784429,None,75.01768717699997,None,75.01768717699997,None,,,,,,,,,,,,,,,,,,,,,,,,001,,,2020_Oct_27_1556,Big5,2020.2.4,59.96508904471478,
,Going down a ski run that is beyond your ability or closed. (R),,,,,,,,,,,,,,0,16,16,16,,,,,,,,,,,,,,,,,,,,,,,,,,,,,,,,,,,,,,,,,,,,,,,,75.61853230299948,None,75.61853230299948,None,2,0.413,0.008093025699963619,None,75.61853230299948,None,75.61853230299948,None,,,,,,,,,,,,,,,,,,,,,,,,001,,,2020_Oct_27_1556,Big5,2020.2.4,59.96508904471478,
,Investing 5% of your annual income in a very speculative stock. (I),,,,,,,,,,,,,,0,17,17,17,,,,,,,,,,,,,,,,,,,,,,,,,,,,,,,,,,,,,,,,,,,,,,,,76.050823605,None,76.050823605,None,2,0.589,0.0015260787004081067,None,76.050823605,None,76.050823605,None,,,,,,,,,,,,,,,,,,,,,,,,001,,,2020_Oct_27_1556,Big5,2020.2.4,59.96508904471478,
,Approaching your boss to ask for a raise. (S),,,,,,,,,,,,,,0,18,18,18,,,,,,,,,,,,,,,,,,,,,,,,,,,,,,,,,,,,,,,,,,,,,,,,76.6676874750001,None,76.6676874750001,None,2,0.409,0.0038372957005776698,None,76.6676874750001,None,76.6676874750001,None,,,,,,,,,,,,,,,,,,,,,,,,001,,,2020_Oct_27_1556,Big5,2020.2.4,59.96508904471478,
,Illegally copying a piece of software. (E) ,,,,,,,,,,,,,,0,19,19,19,,,,,,,,,,,,,,,,,,,,,,,,,,,,,,,,,,,,,,,,,,,,,,,,77.1012821509994,None,77.1012821509994,None,2,0.525,0.005093022699838912,None,77.1012821509994,None,77.1012821509994,None,,,,,,,,,,,,,,,,,,,,,,,,001,,,2020_Oct_27_1556,Big5,2020.2.4,59.96508904471478,
,Going whitewater rafting during rapid water flows in the spring. (R) ,,,,,,,,,,,,,,0,20,20,20,,,,,,,,,,,,,,,,,,,,,,,,,,,,,,,,,,,,,,,,,,,,,,,,77.65106663000006,None,77.65106663000006,None,2,0.607,0.0029965846997583867,None,77.65106663000006,None,77.65106663000006,None,,,,,,,,,,,,,,,,,,,,,,,,001,,,2020_Oct_27_1556,Big5,2020.2.4,59.96508904471478,
,"Betting a day's income on the outcome of a sporting event (e.g. baseball, soccer, or football). (G)",,,,,,,,,,,,,,0,21,21,21,,,,,,,,,,,,,,,,,,,,,,,,,,,,,,,,,,,,,,,,,,,,,,,,78.28472938399955,None,78.28472938399955,None,2,0.606,0.0030941037002776284,None,78.28472938399955,None,78.28472938399955,None,,,,,,,,,,,,,,,,,,,,,,,,001,,,2020_Oct_27_1556,Big5,2020.2.4,59.96508904471478,
,Telling a friend if his or her significant other has made a pass at you. (S),,,,,,,,,,,,,,0,22,22,22,,,,,,,,,,,,,,,,,,,,,,,,,,,,,,,,,,,,,,,,,,,,,,,,78.91860007699961,None,78.91860007699961,None,2,0.574,0.0031100377009352087,None,78.91860007699961,None,78.91860007699961,None,,,,,,,,,,,,,,,,,,,,,,,,001,,,2020_Oct_27_1556,Big5,2020.2.4,59.96508904471478,
,Investing 5% of your annual income in an conservative stock. (I),,,,,,,,,,,,,,0,23,23,23,,,,,,,,,,,,,,,,,,,,,,,,,,,,,,,,,,,,,,,,,,,,,,,,79.51834898800007,None,79.51834898800007,None,2,0.477,0.004245336700478219,None,79.51834898800007,None,79.51834898800007,None,,,,,,,,,,,,,,,,,,,,,,,,001,,,2020_Oct_27_1556,Big5,2020.2.4,59.96508904471478,
,Shoplifting a small item (e.g. a lipstick or a pen). (E) ,,,,,,,,,,,,,,0,24,24,24,,,,,,,,,,,,,,,,,,,,,,,,,,,,,,,,,,,,,,,,,,,,,,,,80.01882987999943,None,80.01882987999943,None,2,0.474,0.002214229699347925,None,80.01882987999943,None,80.01882987999943,None,,,,,,,,,,,,,,,,,,,,,,,,001,,,2020_Oct_27_1556,Big5,2020.2.4,59.96508904471478,
,Wearing provocative or unconventional clothes on occasion. (S),,,,,,,,,,,,,,0,25,25,25,,,,,,,,,,,,,,,,,,,,,,,,,,,,,,,,,,,,,,,,,,,,,,,,80.51755495799989,None,80.51755495799989,None,2,0.442,0.0027739527004086995,None,80.51755495799989,None,80.51755495799989,None,,,,,,,,,,,,,,,,,,,,,,,,001,,,2020_Oct_27_1556,Big5,2020.2.4,59.96508904471478,
,Engaging in unprotected sex. (H),,,,,,,,,,,,,,0,26,26,26,,,,,,,,,,,,,,,,,,,,,,,,,,,,,,,,,,,,,,,,,,,,,,,,80.98525889400025,None,80.98525889400025,None,2,0.552,0.0010069217005366227,None,80.98525889400025,None,80.98525889400025,None,,,,,,,,,,,,,,,,,,,,,,,,001,,,2020_Oct_27_1556,Big5,2020.2.4,59.96508904471478,
,Stealing an additional TV cable connection off the one you pay for. (E) ,,,,,,,,,,,,,,0,27,27,27,,,,,,,,,,,,,,,,,,,,,,,,,,,,,,,,,,,,,,,,,,,,,,,,81.5684563599998,None,81.5684563599998,None,2,0.478,0.004058789700138732,None,81.5684563599998,None,81.5684563599998,None,,,,,,,,,,,,,,,,,,,,,,,,001,,,2020_Oct_27_1556,Big5,2020.2.4,59.96508904471478,
,Not wearing a seatbelt when being a passenger in the front seat. (H),,,,,,,,,,,,,,0,28,28,28,,,,,,,,,,,,,,,,,,,,,,,,,,,,,,,,,,,,,,,,,,,,,,,,82.06846705499993,None,82.06846705499993,None,2,0.493,0.007409426699268806,None,82.06846705499993,None,82.06846705499993,None,,,,,,,,,,,,,,,,,,,,,,,,001,,,2020_Oct_27_1556,Big5,2020.2.4,59.96508904471478,
,Investing 10% of your annual income in governmental bonds (treasury bills). (I),,,,,,,,,,,,,,0,29,29,29,,,,,,,,,,,,,,,,,,,,,,,,,,,,,,,,,,,,,,,,,,,,,,,,82.5851347480002,None,82.5851347480002,None,2,0.54,0.0015453507003257982,None,82.5851347480002,None,82.5851347480002,None,,,,,,,,,,,,,,,,,,,,,,,,001,,,2020_Oct_27_1556,Big5,2020.2.4,59.96508904471478,
,Periodically engaging in a dangerous sport (e.g. mountain climbing or sky diving). (R) ,,,,,,,,,,,,,,0,30,30,30,,,,,,,,,,,,,,,,,,,,,,,,,,,,,,,,,,,,,,,,,,,,,,,,83.15179074499974,None,83.15179074499974,None,2,0.507,0.0022723196998413187,None,83.15179074499974,None,83.15179074499974,None,,,,,,,,,,,,,,,,,,,,,,,,001,,,2020_Oct_27_1556,Big5,2020.2.4,59.96508904471478,
,Not wearing a helmet when riding a motorcycle. (H),,,,,,,,,,,,,,0,31,31,31,,,,,,,,,,,,,,,,,,,,,,,,,,,,,,,,,,,,,,,,,,,,,,,,83.68521184600013,None,83.68521184600013,None,2,0.477,0.004372644701106765,None,83.68521184600013,None,83.68521184600013,None,,,,,,,,,,,,,,,,,,,,,,,,001,,,2020_Oct_27_1556,Big5,2020.2.4,59.96508904471478,
,Gambling a week's income at a casino. (G),,,,,,,,,,,,,,0,32,32,32,,,,,,,,,,,,,,,,,,,,,,,,,,,,,,,,,,,,,,,,,,,,,,,,84.18401661999997,None,84.18401661999997,None,2,0.509,0.004496274699704372,None,84.18401661999997,None,84.18401661999997,None,,,,,,,,,,,,,,,,,,,,,,,,001,,,2020_Oct_27_1556,Big5,2020.2.4,59.96508904471478,
,Taking a job that you enjoy over one that is prestigious but less enjoyable. (S),,,,,,,,,,,,,,0,33,33,33,,,,,,,,,,,,,,,,,,,,,,,,,,,,,,,,,,,,,,,,,,,,,,,,84.71788417199969,None,84.71788417199969,None,2,0.429,0.007296332700207131,None,84.71788417199969,None,84.71788417199969,None,,,,,,,,,,,,,,,,,,,,,,,,001,,,2020_Oct_27_1556,Big5,2020.2.4,59.96508904471478,
,Defending an unpopular issue that you believe in at a social occasion. (S),,,,,,,,,,,,,,0,34,34,34,,,,,,,,,,,,,,,,,,,,,,,,,,,,,,,,,,,,,,,,,,,,,,,,85.16861250900001,None,85.16861250900001,None,2,0.506,0.0014374577012858936,None,85.16861250900001,None,85.16861250900001,None,,,,,,,,,,,,,,,,,,,,,,,,001,,,2020_Oct_27_1556,Big5,2020.2.4,59.96508904471478,
,Exposing yourself to the sun without using sunscreen. (H),,,,,,,,,,,,,,0,35,35,35,,,,,,,,,,,,,,,,,,,,,,,,,,,,,,,,,,,,,,,,,,,,,,,,85.70121965399994,None,85.70121965399994,None,2,0.446,0.005725414700464171,None,85.70121965399994,None,85.70121965399994,None,,,,,,,,,,,,,,,,,,,,,,,,001,,,2020_Oct_27_1556,Big5,2020.2.4,59.96508904471478,
,Trying out bungee jumping at least once. (R),,,,,,,,,,,,,,0,36,36,36,,,,,,,,,,,,,,,,,,,,,,,,,,,,,,,,,,,,,,,,,,,,,,,,86.16817422900021,None,86.16817422900021,None,2,0.427,0.005334845699508151,None,86.16817422900021,None,86.16817422900021,None,,,,,,,,,,,,,,,,,,,,,,,,001,,,2020_Oct_27_1556,Big5,2020.2.4,59.96508904471478,
,"Piloting your own small plane, if you could. (R) ",,,,,,,,,,,,,,0,37,37,37,,,,,,,,,,,,,,,,,,,,,,,,,,,,,,,,,,,,,,,,,,,,,,,,86.61852825099959,None,86.61852825099959,None,2,0.446,0.007193328699941048,None,86.61852825099959,None,86.61852825099959,None,,,,,,,,,,,,,,,,,,,,,,,,001,,,2020_Oct_27_1556,Big5,2020.2.4,59.96508904471478,
,Walking home alone at night in a somewhat unsafe area of town. (H),,,,,,,,,,,,,,0,38,38,38,,,,,,,,,,,,,,,,,,,,,,,,,,,,,,,,,,,,,,,,,,,,,,,,87.08435868099969,None,87.08435868099969,None,2,0.408,0.0024014996997721028,None,87.08435868099969,None,87.08435868099969,None,,,,,,,,,,,,,,,,,,,,,,,,001,,,2020_Oct_27_1556,Big5,2020.2.4,59.96508904471478,
,Regularly eating high cholesterol foods. (H) ,,,,,,,,,,,,,,0,39,39,39,,,,,,,,,,,,,,,,,,,,,,,,,,,,,,,,,,,,,,,,,,,,,,,,87.51810775099966,None,87.51810775099966,None,2,0.408,0.004445197700079007,None,87.51810775099966,None,87.51810775099966,None,,,,,,,,,,,,,,,,,,,,,,,,001,,,2020_Oct_27_1556,Big5,2020.2.4,59.96508904471478,
,,Tends to be quiet.,,,,,,,,,,,,,,,,,0,0,0,0,,,,,,,,,,,,,,,,,,,,,,,,,,,,,,,,,,,,,,,,,,,,,,,,,,,,,,,,88.05144990400004,None,2,2.21,0.0038953577013671747,None,88.10061027199936,None,88.10061027199936,None,88.10061027199936,None,88.10061027199936,None,88.10061027199936,None,88.10061027199936,None,88.10061027199936,None,,,,001,,,2020_Oct_27_1556,Big5,2020.2.4,59.96508904471478,
,,"Is compassionate, has a soft heart.",,,,,,,,,,,,,,,,,0,1,1,1,,,,,,,,,,,,,,,,,,,,,,,,,,,,,,,,,,,,,,,,,,,,,,,,,,,,,,,,,,2,0.406,0.0038292997005555662,None,90.33463276200018,None,90.33463276200018,None,90.33463276200018,None,90.33463276200018,None,90.33463276200018,None,90.33463276200018,None,90.33463276200018,None,,,,001,,,2020_Oct_27_1556,Big5,2020.2.4,59.96508904471478,
,,Tends to be disorganized.,,,,,,,,,,,,,,,,,0,2,2,2,,,,,,,,,,,,,,,,,,,,,,,,,,,,,,,,,,,,,,,,,,,,,,,,,,,,,,,,,,2,0.527,0.004783995700563537,None,90.7682423010001,None,90.7682423010001,None,90.7682423010001,None,90.7682423010001,None,90.7682423010001,None,90.7682423010001,None,90.7682423010001,None,,,,001,,,2020_Oct_27_1556,Big5,2020.2.4,59.96508904471478,
,,Worries a lot.,,,,,,,,,,,,,,,,,0,3,3,3,,,,,,,,,,,,,,,,,,,,,,,,,,,,,,,,,,,,,,,,,,,,,,,,,,,,,,,,,,2,0.528,0.004838128701521782,None,91.31735489099992,None,91.31735489099992,None,91.31735489099992,None,91.31735489099992,None,91.31735489099992,None,91.31735489099992,None,91.31735489099992,None,,,,001,,,2020_Oct_27_1556,Big5,2020.2.4,59.96508904471478,
,,"Is fascinated by art, music, or literature.",,,,,,,,,,,,,,,,,0,4,4,4,,,,,,,,,,,,,,,,,,,,,,,,,,,,,,,,,,,,,,,,,,,,,,,,,,,,,,,,,,2,0.545,0.004973726699063263,None,91.86867141399944,None,91.86867141399944,None,91.86867141399944,None,91.86867141399944,None,91.86867141399944,None,91.86867141399944,None,91.86867141399944,None,,,,001,,,2020_Oct_27_1556,Big5,2020.2.4,59.96508904471478,
,,"Is dominant, acts as a leader.",,,,,,,,,,,,,,,,,0,5,5,5,,,,,,,,,,,,,,,,,,,,,,,,,,,,,,,,,,,,,,,,,,,,,,,,,,,,,,,,,,2,0.491,0.0016380987008233205,None,92.45133713699943,None,92.45133713699943,None,92.45133713699943,None,92.45133713699943,None,92.45133713699943,None,92.45133713699943,None,92.45133713699943,None,,,,001,,,2020_Oct_27_1556,Big5,2020.2.4,59.96508904471478,
,,Is sometimes rude to others.,,,,,,,,,,,,,,,,,0,6,6,6,,,,,,,,,,,,,,,,,,,,,,,,,,,,,,,,,,,,,,,,,,,,,,,,,,,,,,,,,,2,0.501,0.006184898699757468,None,92.96829993400024,None,92.96829993400024,None,92.96829993400024,None,92.96829993400024,None,92.96829993400024,None,92.96829993400024,None,92.96829993400024,None,,,,001,,,2020_Oct_27_1556,Big5,2020.2.4,59.96508904471478,
,,Has difficulty getting started on tasks.,,,,,,,,,,,,,,,,,0,7,7,7,,,,,,,,,,,,,,,,,,,,,,,,,,,,,,,,,,,,,,,,,,,,,,,,,,,,,,,,,,2,0.46,0.004351641699031461,None,93.50145512899962,None,93.50145512899962,None,93.50145512899962,None,93.50145512899962,None,93.50145512899962,None,93.50145512899962,None,93.50145512899962,None,,,,001,,,2020_Oct_27_1556,Big5,2020.2.4,59.96508904471478,
,,"Tends to feel depressed, blue.",,,,,,,,,,,,,,,,,0,8,8,8,,,,,,,,,,,,,,,,,,,,,,,,,,,,,,,,,,,,,,,,,,,,,,,,,,,,,,,,,,2,0.464,0.006105400699198071,None,93.98441636899952,None,93.98441636899952,None,93.98441636899952,None,93.98441636899952,None,93.98441636899952,None,93.98441636899952,None,93.98441636899952,None,,,,001,,,2020_Oct_27_1556,Big5,2020.2.4,59.96508904471478,
,,Has little interest in abstract ideas.,,,,,,,,,,,,,,,,,0,9,9,9,,,,,,,,,,,,,,,,,,,,,,,,,,,,,,,,,,,,,,,,,,,,,,,,,,,,,,,,,,2,0.424,0.001888420701106952,None,94.46788199099956,None,94.46788199099956,None,94.46788199099956,None,94.46788199099956,None,94.46788199099956,None,94.46788199099956,None,94.46788199099956,None,,,,001,,,2020_Oct_27_1556,Big5,2020.2.4,59.96508904471478,
,,Is full of energy. ,,,,,,,,,,,,,,,,,0,10,10,10,,,,,,,,,,,,,,,,,,,,,,,,,,,,,,,,,,,,,,,,,,,,,,,,,,,,,,,,,,2,0.448,0.008455046700873936,None,94.9174497189997,None,94.9174497189997,None,94.9174497189997,None,94.9174497189997,None,94.9174497189997,None,94.9174497189997,None,94.9174497189997,None,,,,001,,,2020_Oct_27_1556,Big5,2020.2.4,59.96508904471478,
,,Assumes the best about people.,,,,,,,,,,,,,,,,,0,11,11,11,,,,,,,,,,,,,,,,,,,,,,,,,,,,,,,,,,,,,,,,,,,,,,,,,,,,,,,,,,2,0.405,0.002901935699810565,None,95.40059004900013,None,95.40059004900013,None,95.40059004900013,None,95.40059004900013,None,95.40059004900013,None,95.40059004900013,None,95.40059004900013,None,,,,001,,,2020_Oct_27_1556,Big5,2020.2.4,59.96508904471478,
,,"Is reliable, can always be counted on.",,,,,,,,,,,,,,,,,0,12,12,12,,,,,,,,,,,,,,,,,,,,,,,,,,,,,,,,,,,,,,,,,,,,,,,,,,,,,,,,,,2,0.479,0.006809773699387733,None,95.83459702100026,None,95.83459702100026,None,95.83459702100026,None,95.83459702100026,None,95.83459702100026,None,95.83459702100026,None,95.83459702100026,None,,,,001,,,2020_Oct_27_1556,Big5,2020.2.4,59.96508904471478,
,,"Is emotionally stable, not easily upset.",,,,,,,,,,,,,,,,,0,13,13,13,,,,,,,,,,,,,,,,,,,,,,,,,,,,,,,,,,,,,,,,,,,,,,,,,,,,,,,,,,3,0.409,0.0027788536999651114,None,96.33393806799995,None,96.33393806799995,None,96.33393806799995,None,96.33393806799995,None,96.33393806799995,None,96.33393806799995,None,96.33393806799995,None,,,,001,,,2020_Oct_27_1556,Big5,2020.2.4,59.96508904471478,
,,"Is original, comes up with new ideas.",,,,,,,,,,,,,,,,,0,14,14,14,,,,,,,,,,,,,,,,,,,,,,,,,,,,,,,,,,,,,,,,,,,,,,,,,,,,,,,,,,3,0.491,0.002994899700752285,None,96.76815423100015,None,96.76815423100015,None,96.76815423100015,None,96.76815423100015,None,96.76815423100015,None,96.76815423100015,None,96.76815423100015,None,,,,001,,,2020_Oct_27_1556,Big5,2020.2.4,59.96508904471478,
,,"Is outgoing, sociable.",,,,,,,,,,,,,,,,,0,15,15,15,,,,,,,,,,,,,,,,,,,,,,,,,,,,,,,,,,,,,,,,,,,,,,,,,,,,,,,,,,3,0.476,0.004279942700122774,None,97.28467990699937,None,97.28467990699937,None,97.28467990699937,None,97.28467990699937,None,97.28467990699937,None,97.28467990699937,None,97.28467990699937,None,,,,001,,,2020_Oct_27_1556,Big5,2020.2.4,59.96508904471478,
,,Can be cold and uncaring.,,,,,,,,,,,,,,,,,0,16,16,16,,,,,,,,,,,,,,,,,,,,,,,,,,,,,,,,,,,,,,,,,,,,,,,,,,,,,,,,,,3,0.499,0.005617997700028354,None,97.78445881900006,None,97.78445881900006,None,97.78445881900006,None,97.78445881900006,None,97.78445881900006,None,97.78445881900006,None,97.78445881900006,None,,,,001,,,2020_Oct_27_1556,Big5,2020.2.4,59.96508904471478,
,,Keep things neat and tidy.,,,,,,,,,,,,,,,,,0,17,17,17,,,,,,,,,,,,,,,,,,,,,,,,,,,,,,,,,,,,,,,,,,,,,,,,,,,,,,,,,,3,0.508,0.002830381700732687,None,98.31748876500023,None,98.31748876500023,None,98.31748876500023,None,98.31748876500023,None,98.31748876500023,None,98.31748876500023,None,98.31748876500023,None,,,,001,,,2020_Oct_27_1556,Big5,2020.2.4,59.96508904471478,
,,"Is relaxed, handles stress well. ",,,,,,,,,,,,,,,,,0,18,18,18,,,,,,,,,,,,,,,,,,,,,,,,,,,,,,,,,,,,,,,,,,,,,,,,,,,,,,,,,,3,0.463,0.004971608700543584,None,98.85106397599975,None,98.85106397599975,None,98.85106397599975,None,98.85106397599975,None,98.85106397599975,None,98.85106397599975,None,98.85106397599975,None,,,,001,,,2020_Oct_27_1556,Big5,2020.2.4,59.96508904471478,
,,Has few artistic interests.,,,,,,,,,,,,,,,,,0,19,19,19,,,,,,,,,,,,,,,,,,,,,,,,,,,,,,,,,,,,,,,,,,,,,,,,,,,,,,,,,,3,0.458,0.0037024287003077916,None,99.3342348870001,None,99.3342348870001,None,99.3342348870001,None,99.3342348870001,None,99.3342348870001,None,99.3342348870001,None,99.3342348870001,None,,,,001,,,2020_Oct_27_1556,Big5,2020.2.4,59.96508904471478,
,,Prefers to have others take charge.,,,,,,,,,,,,,,,,,0,20,20,20,,,,,,,,,,,,,,,,,,,,,,,,,,,,,,,,,,,,,,,,,,,,,,,,,,,,,,,,,,3,0.476,0.005757418700341077,None,99.81772067600014,None,99.81772067600014,None,99.81772067600014,None,99.81772067600014,None,99.81772067600014,None,99.81772067600014,None,99.81772067600014,None,,,,001,,,2020_Oct_27_1556,Big5,2020.2.4,59.96508904471478,
,,"Is respectful, treats others with respect.",,,,,,,,,,,,,,,,,0,21,21,21,,,,,,,,,,,,,,,,,,,,,,,,,,,,,,,,,,,,,,,,,,,,,,,,,,,,,,,,,,3,0.407,0.003293432700957055,None,100.31742884599953,None,100.31742884599953,None,100.31742884599953,None,100.31742884599953,None,100.31742884599953,None,100.31742884599953,None,100.31742884599953,None,,,,001,,,2020_Oct_27_1556,Big5,2020.2.4,59.96508904471478,
,,"Is persistent, works until the task is finished.",,,,,,,,,,,,,,,,,0,22,22,22,,,,,,,,,,,,,,,,,,,,,,,,,,,,,,,,,,,,,,,,,,,,,,,,,,,,,,,,,,3,0.491,0.0030220566995922127,None,100.75093938099963,None,100.75093938099963,None,100.75093938099963,None,100.75093938099963,None,100.75093938099963,None,100.75093938099963,None,100.75093938099963,None,,,,001,,,2020_Oct_27_1556,Big5,2020.2.4,59.96508904471478,
,,"Feels secure, comfortable with self.",,,,,,,,,,,,,,,,,0,23,23,23,,,,,,,,,,,,,,,,,,,,,,,,,,,,,,,,,,,,,,,,,,,,,,,,,,,,,,,,,,3,0.491,0.0027867657008755486,None,101.26831519999996,None,101.26831519999996,None,101.26831519999996,None,101.26831519999996,None,101.26831519999996,None,101.26831519999996,None,101.26831519999996,None,,,,001,,,2020_Oct_27_1556,Big5,2020.2.4,59.96508904471478,
,,"Is complex, a deep thinker.",,,,,,,,,,,,,,,,,0,24,24,24,,,,,,,,,,,,,,,,,,,,,,,,,,,,,,,,,,,,,,,,,,,,,,,,,,,,,,,,,,3,0.409,0.007153153699618997,None,101.7846048020001,None,101.7846048020001,None,101.7846048020001,None,101.7846048020001,None,101.7846048020001,None,101.7846048020001,None,101.7846048020001,None,,,,001,,,2020_Oct_27_1556,Big5,2020.2.4,59.96508904471478,
,,Is less active than other people.,,,,,,,,,,,,,,,,,0,25,25,25,,,,,,,,,,,,,,,,,,,,,,,,,,,,,,,,,,,,,,,,,,,,,,,,,,,,,,,,,,3,0.459,0.0037746207008240162,None,102.2174727040001,None,102.2174727040001,None,102.2174727040001,None,102.2174727040001,None,102.2174727040001,None,102.2174727040001,None,102.2174727040001,None,,,,001,,,2020_Oct_27_1556,Big5,2020.2.4,59.96508904471478,
,,Tends to find fault with others.,,,,,,,,,,,,,,,,,0,26,26,26,,,,,,,,,,,,,,,,,,,,,,,,,,,,,,,,,,,,,,,,,,,,,,,,,,,,,,,,,,3,0.53,0.006946432699805882,None,102.70148471899938,None,102.70148471899938,None,102.70148471899938,None,102.70148471899938,None,102.70148471899938,None,102.70148471899938,None,102.70148471899938,None,,,,001,,,2020_Oct_27_1556,Big5,2020.2.4,59.96508904471478,
,,Can be somewhat careless.,,,,,,,,,,,,,,,,,0,27,27,27,,,,,,,,,,,,,,,,,,,,,,,,,,,,,,,,,,,,,,,,,,,,,,,,,,,,,,,,,,3,0.41,0.007233452700347698,None,103.25073919999977,None,103.25073919999977,None,103.25073919999977,None,103.25073919999977,None,103.25073919999977,None,103.25073919999977,None,103.25073919999977,None,,,,001,,,2020_Oct_27_1556,Big5,2020.2.4,59.96508904471478,
,,"Is temperamental, gets emotional easily.",,,,,,,,,,,,,,,,,0,28,28,28,,,,,,,,,,,,,,,,,,,,,,,,,,,,,,,,,,,,,,,,,,,,,,,,,,,,,,,,,,3,0.492,0.003864306700961606,None,103.68473010399975,None,103.68473010399975,None,103.68473010399975,None,103.68473010399975,None,103.68473010399975,None,103.68473010399975,None,103.68473010399975,None,,,,001,,,2020_Oct_27_1556,Big5,2020.2.4,59.96508904471478,
,,Has little creativity. ,,,,,,,,,,,,,,,,,0,29,29,29,,,,,,,,,,,,,,,,,,,,,,,,,,,,,,,,,,,,,,,,,,,,,,,,,,,,,,,,,,3,0.41,0.005712676700568409,None,104.20122704000005,None,104.20122704000005,None,104.20122704000005,None,104.20122704000005,None,104.20122704000005,None,104.20122704000005,None,104.20122704000005,None,,,,001,,,2020_Oct_27_1556,Big5,2020.2.4,59.96508904471478,
,,,,,,,,,,,,,,,,,,,,,,,,,,,,,,,,,,,,,,,,,,,,,,,,,,,,,,,,,,,,,,,,,,,,,,,,,,,,,,,,,,,,,,,,,,,,,,,,,,104.76799001499967,None,,,,,,,,,
