Scenario,C,Charac,trials.thisRepN,trials.thisTrialN,trials.thisN,trials.thisIndex,trials_2.thisRepN,trials_2.thisTrialN,trials_2.thisN,trials_2.thisIndex,trials_3.thisRepN,trials_3.thisTrialN,trials_3.thisN,trials_3.thisIndex,trials_4.thisRepN,trials_4.thisTrialN,trials_4.thisN,trials_4.thisIndex,trials_5.thisRepN,trials_5.thisTrialN,trials_5.thisN,trials_5.thisIndex,IntroScreen.started,IntroScreen.stopped,instructions.started,instructions.stopped,scenario1.started,scenario1.stopped,notAtAll.started,notAtAll.stopped,veryMuch.started,veryMuch.stopped,lastRating,rating.response,rating.rt,rating.started,rating.stopped,riskBehaviorScaleScreen.started,riskBehaviorScaleScreen.stopped,activity.started,activity.stopped,notAtAll2.started,notAtAll2.stopped,ExtremelyLikely.started,ExtremelyLikely.stopped,rating2.response,rating2.rt,rating2.started,rating2.stopped,Rating,riskPerceptionInstructions.started,riskPerceptionInstructions.stopped,riskPerceptionActivity2.started,riskPerceptionActivity2.stopped,rating3.response,rating3.rt,rating3.started,rating3.stopped,notAtAllRisky.started,notAtAllRisky.stopped,ModeratelyRisky.started,ModeratelyRisky.stopped,ExtremelyRisky.started,ExtremelyRisky.stopped,expBenefits.started,expBenefits.stopped,riskBenefitsScale.started,riskBenefitsScale.stopped,noBenefits.started,noBenefits.stopped,rating4.response,rating4.rt,rating4.started,rating4.stopped,greatBenefits.started,greatBenefits.stopped,moderateBenefits.started,moderateBenefits.stopped,big5Screen.started,big5Screen.stopped,rating5.response,rating5.rt,rating5.started,rating5.stopped,characText.started,characText.stopped,Someone.started,Someone.stopped,disagreeStrongly.started,disagreeStrongly.stopped,disagreeALittle.started,disagreeALittle.stopped,Neutral.started,Neutral.stopped,AgreeALittle.started,AgreeALittle.stopped,AgreeStrongly.started,AgreeStrongly.stopped,congratsText.started,congratsText.stopped,participant,session,sex,age,date,expName,psychopyVersion,frameRate,
Finding your way back to a familiar area after realizing you have made a wrong turn and become lost while driving.,,,0,0,0,5,,,,,,,,,,,,,,,,,5.5774095300002955,None,5.876865715996246,None,6.143562354001915,None,6.143562354001915,None,6.143562354001915,None,0.4,3,2.813,0.001559865806484595,None,,,,,,,,,,,,,,,,,,,,,,,,,,,,,,,,,,,,,,,,,,,,,,,,,,,,,,,,,,,,,,,,,001,,,2020_Oct_29_1729,Big5,2020.2.4,60.08192951974862,
Leaving a store that you have been to for the first time and deciding which way to turn to get to a destination.,,,0,1,1,0,,,,,,,,,,,,,,,,,,,,,8.965028584992979,None,8.965028584992979,None,8.965028584992979,None,0.4,3,0.407,0.002297661398188211,None,,,,,,,,,,,,,,,,,,,,,,,,,,,,,,,,,,,,,,,,,,,,,,,,,,,,,,,,,,,,,,,,,001,,,2020_Oct_29_1729,Big5,2020.2.4,60.08192951974862,
Trying a new route that you think will be a shortcut without the benefit of a map.,,,0,2,2,4,,,,,,,,,,,,,,,,,,,,,9.39834224099468,None,9.39834224099468,None,9.39834224099468,None,0.4,3,0.404,0.00024212639254983515,None,,,,,,,,,,,,,,,,,,,,,,,,,,,,,,,,,,,,,,,,,,,,,,,,,,,,,,,,,,,,,,,,,001,,,2020_Oct_29_1729,Big5,2020.2.4,60.08192951974862,
Finding your way around in an unfamiliar mall.,,,0,3,3,6,,,,,,,,,,,,,,,,,,,,,9.831749275996117,None,9.831749275996117,None,9.831749275996117,None,0.4,3,0.409,0.0036885073932353407,None,,,,,,,,,,,,,,,,,,,,,,,,,,,,,,,,,,,,,,,,,,,,,,,,,,,,,,,,,,,,,,,,,001,,,2020_Oct_29_1729,Big5,2020.2.4,60.08192951974862,
Finding your way out of a complex arrangement of offices that you have visited for the first time.,,,0,4,4,1,,,,,,,,,,,,,,,,,,,,,10.265680950004025,None,10.265680950004025,None,10.265680950004025,None,0.4,3,0.637,0.015184846793999895,None,,,,,,,,,,,,,,,,,,,,,,,,,,,,,,,,,,,,,,,,,,,,,,,,,,,,,,,,,,,,,,,,,001,,,2020_Oct_29_1729,Big5,2020.2.4,60.08192951974862,
"Pointing in the direction of a place outside that someone wants to get to and has asked you for directions, when you are in a windowless room.",,,0,5,5,2,,,,,,,,,,,,,,,,,,,,,10.932289721997222,None,10.932289721997222,None,10.932289721997222,None,0.4,3,0.495,0.0002163813915103674,None,,,,,,,,,,,,,,,,,,,,,,,,,,,,,,,,,,,,,,,,,,,,,,,,,,,,,,,,,,,,,,,,,001,,,2020_Oct_29_1729,Big5,2020.2.4,60.08192951974862,
Finding your way to an appointment in an area of a city or town with which you are not familiar. ,,,0,6,6,7,,,,,,,,,,,,,,,,,,,,,11.465670296995086,None,11.465670296995086,None,11.465670296995086,None,0.4,3,0.562,0.006626810398302041,None,,,,,,,,,,,,,,,,,,,,,,,,,,,,,,,,,,,,,,,,,,,,,,,,,,,,,,,,,,,,,,,,,001,,,2020_Oct_29_1729,Big5,2020.2.4,60.08192951974862,
Locating your car in a very large parking lot or parking garage.,,,0,7,7,3,,,,,,,,,,,,,,,,,,,,,12.048221870994894,None,12.048221870994894,None,12.048221870994894,None,0.4,3,0.414,0.00921611140074674,None,,,,,,,,,,,,,,,,,,,,,,,,,,,,,,,,,,,,,,,,,,,,,,,,,,,,,,,,,,,,,,,,,001,,,2020_Oct_29_1729,Big5,2020.2.4,60.08192951974862,
,Admitting that your tastes are different from those of your friends. (S),,,,,,0,0,0,0,,,,,,,,,,,,,,,,,,,,,,,,,,,,12.465662479997263,None,13.099703711006441,None,13.099703711006441,None,13.099703711006441,None,3,1.091,0.00014179039862938225,None,2.0,,,,,,,,,,,,,,,,,,,,,,,,,,,,,,,,,,,,,,,,,,,,,,,,,,,,001,,,2020_Oct_29_1729,Big5,2020.2.4,60.08192951974862,
,"Going camping in the wilderness, beyond the civilization of a campground. (R) ",,,,,,0,1,1,1,,,,,,,,,,,,,,,,,,,,,,,,,,,,,,14.21462562099623,None,14.21462562099623,None,14.21462562099623,None,3,0.908,0.005290859393426217,None,2.0,,,,,,,,,,,,,,,,,,,,,,,,,,,,,,,,,,,,,,,,,,,,,,,,,,,,001,,,2020_Oct_29_1729,Big5,2020.2.4,60.08192951974862,
,Betting a day's income at the horse races. (G),,,,,,0,2,2,2,,,,,,,,,,,,,,,,,,,,,,,,,,,,,,15.148343310997006,None,15.148343310997006,None,15.148343310997006,None,3,0.963,0.00915145939507056,None,2.0,,,,,,,,,,,,,,,,,,,,,,,,,,,,,,,,,,,,,,,,,,,,,,,,,,,,001,,,2020_Oct_29_1729,Big5,2020.2.4,60.08192951974862,
,Buying an illegal drug for your own use. (H),,,,,,0,3,3,3,,,,,,,,,,,,,,,,,,,,,,,,,,,,,,16.132472664001398,None,16.132472664001398,None,16.132472664001398,None,3,1.097,0.009797072387300432,None,2.0,,,,,,,,,,,,,,,,,,,,,,,,,,,,,,,,,,,,,,,,,,,,,,,,,,,,001,,,2020_Oct_29_1729,Big5,2020.2.4,60.08192951974862,
,Cheating on an exam. (E),,,,,,0,4,4,4,,,,,,,,,,,,,,,,,,,,,,,,,,,,,,17.23250777499925,None,17.23250777499925,None,17.23250777499925,None,3,0.442,0.010395017394330353,None,2.0,,,,,,,,,,,,,,,,,,,,,,,,,,,,,,,,,,,,,,,,,,,,,,,,,,,,001,,,2020_Oct_29_1729,Big5,2020.2.4,60.08192951974862,
,Chasing a tornado or hurricane by car to take dramatic photos. (R),,,,,,0,5,5,5,,,,,,,,,,,,,,,,,,,,,,,,,,,,,,17.71550882300653,None,17.71550882300653,None,17.71550882300653,None,3,0.41,0.005656660403474234,None,2.0,,,,,,,,,,,,,,,,,,,,,,,,,,,,,,,,,,,,,,,,,,,,,,,,,,,,001,,,2020_Oct_29_1729,Big5,2020.2.4,60.08192951974862,
,Investing 10% of your annual income in a moderate growth mutual fund. (I),,,,,,0,6,6,6,,,,,,,,,,,,,,,,,,,,,,,,,,,,,,18.148470821994124,None,18.148470821994124,None,18.148470821994124,None,3,0.407,0.0027122723986394703,None,2.0,,,,,,,,,,,,,,,,,,,,,,,,,,,,,,,,,,,,,,,,,,,,,,,,,,,,001,,,2020_Oct_29_1729,Big5,2020.2.4,60.08192951974862,
,Consuming five or more servings of alcohol in a single evening. (H),,,,,,0,7,7,7,,,,,,,,,,,,,,,,,,,,,,,,,,,,,,18.581478923995746,None,18.581478923995746,None,18.581478923995746,None,3,0.436,0.0023641703883185983,None,2.0,,,,,,,,,,,,,,,,,,,,,,,,,,,,,,,,,,,,,,,,,,,,,,,,,,,,001,,,2020_Oct_29_1729,Big5,2020.2.4,60.08192951974862,
,Cheating by a significant amount on your income tax return. (E),,,,,,0,8,8,8,,,,,,,,,,,,,,,,,,,,,,,,,,,,,,19.048166823995416,None,19.048166823995416,None,19.048166823995416,None,3,0.41,0.006489266379503533,None,2.0,,,,,,,,,,,,,,,,,,,,,,,,,,,,,,,,,,,,,,,,,,,,,,,,,,,,001,,,2020_Oct_29_1729,Big5,2020.2.4,60.08192951974862,
,Disagreeing with your father on a major issue. (S),,,,,,0,9,9,9,,,,,,,,,,,,,,,,,,,,,,,,,,,,,,19.481312871997943,None,19.481312871997943,None,19.481312871997943,None,3,0.409,0.004427896405104548,None,2.0,,,,,,,,,,,,,,,,,,,,,,,,,,,,,,,,,,,,,,,,,,,,,,,,,,,,001,,,2020_Oct_29_1729,Big5,2020.2.4,60.08192951974862,
,Betting a day's income at a high stake poker game. (G),,,,,,0,10,10,10,,,,,,,,,,,,,,,,,,,,,,,,,,,,,,19.914698869004496,None,19.914698869004496,None,19.914698869004496,None,3,0.407,0.0032302283943863586,None,2.0,,,,,,,,,,,,,,,,,,,,,,,,,,,,,,,,,,,,,,,,,,,,,,,,,,,,001,,,2020_Oct_29_1729,Big5,2020.2.4,60.08192951974862,
,Having an affair with a married man or woman. (E),,,,,,0,11,11,11,,,,,,,,,,,,,,,,,,,,,,,,,,,,,,20.34860247200413,None,20.34860247200413,None,20.34860247200413,None,3,0.409,0.005024907382903621,None,2.0,,,,,,,,,,,,,,,,,,,,,,,,,,,,,,,,,,,,,,,,,,,,,,,,,,,,001,,,2020_Oct_29_1729,Big5,2020.2.4,60.08192951974862,
,Forging somebody's signature. (E),,,,,,0,12,12,12,,,,,,,,,,,,,,,,,,,,,,,,,,,,,,20.76629094699456,None,20.76629094699456,None,20.76629094699456,None,3,0.449,0.010930617383564822,None,2.0,,,,,,,,,,,,,,,,,,,,,,,,,,,,,,,,,,,,,,,,,,,,,,,,,,,,001,,,2020_Oct_29_1729,Big5,2020.2.4,60.08192951974862,
,Passing off somebody else's work as your own. (E),,,,,,0,13,13,13,,,,,,,,,,,,,,,,,,,,,,,,,,,,,,21.248194594998495,None,21.248194594998495,None,21.248194594998495,None,3,0.408,0.004515098407864571,None,2.0,,,,,,,,,,,,,,,,,,,,,,,,,,,,,,,,,,,,,,,,,,,,,,,,,,,,001,,,2020_Oct_29_1729,Big5,2020.2.4,60.08192951974862,
,Going on a vacation in a third-world country without prearranged travel and hotel accommodations. (R),,,,,,0,14,14,14,,,,,,,,,,,,,,,,,,,,,,,,,,,,,,21.681280749995494,None,21.681280749995494,None,21.681280749995494,None,3,0.439,0.0028996894106967375,None,2.0,,,,,,,,,,,,,,,,,,,,,,,,,,,,,,,,,,,,,,,,,,,,,,,,,,,,001,,,2020_Oct_29_1729,Big5,2020.2.4,60.08192951974862,
,Arguing with a friend about an issue on which he or she has a very different opinion. (S) ,,,,,,0,15,15,15,,,,,,,,,,,,,,,,,,,,,,,,,,,,,,22.148951940005645,None,22.148951940005645,None,22.148951940005645,None,3,0.462,0.007181673383456655,None,2.0,,,,,,,,,,,,,,,,,,,,,,,,,,,,,,,,,,,,,,,,,,,,,,,,,,,,001,,,2020_Oct_29_1729,Big5,2020.2.4,60.08192951974862,
,Going down a ski run that is beyond your ability or closed. (R),,,,,,0,16,16,16,,,,,,,,,,,,,,,,,,,,,,,,,,,,,,22.632120989001123,None,22.632120989001123,None,22.632120989001123,None,3,0.864,0.005163946392713115,None,2.0,,,,,,,,,,,,,,,,,,,,,,,,,,,,,,,,,,,,,,,,,,,,,,,,,,,,001,,,2020_Oct_29_1729,Big5,2020.2.4,60.08192951974862,
,Investing 5% of your annual income in a very speculative stock. (I),,,,,,0,17,17,17,,,,,,,,,,,,,,,,,,,,,,,,,,,,,,23.53166198299732,None,23.53166198299732,None,23.53166198299732,None,3,0.543,0.004219455397105776,None,2.0,,,,,,,,,,,,,,,,,,,,,,,,,,,,,,,,,,,,,,,,,,,,,,,,,,,,001,,,2020_Oct_29_1729,Big5,2020.2.4,60.08192951974862,
,Approaching your boss to ask for a raise. (S),,,,,,0,18,18,18,,,,,,,,,,,,,,,,,,,,,,,,,,,,,,24.083728404002613,None,24.083728404002613,None,24.083728404002613,None,3,0.45,0.010299184403265826,None,2.0,,,,,,,,,,,,,,,,,,,,,,,,,,,,,,,,,,,,,,,,,,,,,,,,,,,,001,,,2020_Oct_29_1729,Big5,2020.2.4,60.08192951974862,
,Illegally copying a piece of software. (E) ,,,,,,0,19,19,19,,,,,,,,,,,,,,,,,,,,,,,,,,,,,,24.564684958997532,None,24.564684958997532,None,24.564684958997532,None,3,0.43,0.010555451386608183,None,2.0,,,,,,,,,,,,,,,,,,,,,,,,,,,,,,,,,,,,,,,,,,,,,,,,,,,,001,,,2020_Oct_29_1729,Big5,2020.2.4,60.08192951974862,
,Going whitewater rafting during rapid water flows in the spring. (R) ,,,,,,0,20,20,20,,,,,,,,,,,,,,,,,,,,,,,,,,,,,,25.014742514002137,None,25.014742514002137,None,25.014742514002137,None,3,0.412,0.005705263392883353,None,2.0,,,,,,,,,,,,,,,,,,,,,,,,,,,,,,,,,,,,,,,,,,,,,,,,,,,,001,,,2020_Oct_29_1729,Big5,2020.2.4,60.08192951974862,
,"Betting a day's income on the outcome of a sporting event (e.g. baseball, soccer, or football). (G)",,,,,,0,21,21,21,,,,,,,,,,,,,,,,,,,,,,,,,,,,,,25.448457111997413,None,25.448457111997413,None,25.448457111997413,None,3,0.406,0.0017046524008037522,None,2.0,,,,,,,,,,,,,,,,,,,,,,,,,,,,,,,,,,,,,,,,,,,,,,,,,,,,001,,,2020_Oct_29_1729,Big5,2020.2.4,60.08192951974862,
,Telling a friend if his or her significant other has made a pass at you. (S),,,,,,0,22,22,22,,,,,,,,,,,,,,,,,,,,,,,,,,,,,,25.881851908998215,None,25.881851908998215,None,25.881851908998215,None,3,0.43,0.008716872398508713,None,2.0,,,,,,,,,,,,,,,,,,,,,,,,,,,,,,,,,,,,,,,,,,,,,,,,,,,,001,,,2020_Oct_29_1729,Big5,2020.2.4,60.08192951974862,
,Investing 5% of your annual income in an conservative stock. (I),,,,,,0,23,23,23,,,,,,,,,,,,,,,,,,,,,,,,,,,,,,26.332223086996237,None,26.332223086996237,None,26.332223086996237,None,3,0.497,0.009229637391399592,None,2.0,,,,,,,,,,,,,,,,,,,,,,,,,,,,,,,,,,,,,,,,,,,,,,,,,,,,001,,,2020_Oct_29_1729,Big5,2020.2.4,60.08192951974862,
,Shoplifting a small item (e.g. a lipstick or a pen). (E) ,,,,,,0,24,24,24,,,,,,,,,,,,,,,,,,,,,,,,,,,,,,26.83358789299382,None,26.83358789299382,None,26.83358789299382,None,3,0.412,0.009932164393831044,None,2.0,,,,,,,,,,,,,,,,,,,,,,,,,,,,,,,,,,,,,,,,,,,,,,,,,,,,001,,,2020_Oct_29_1729,Big5,2020.2.4,60.08192951974862,
,Wearing provocative or unconventional clothes on occasion. (S),,,,,,0,25,25,25,,,,,,,,,,,,,,,,,,,,,,,,,,,,,,27.281894177998765,None,27.281894177998765,None,27.281894177998765,None,3,0.414,0.008452877387753688,None,2.0,,,,,,,,,,,,,,,,,,,,,,,,,,,,,,,,,,,,,,,,,,,,,,,,,,,,001,,,2020_Oct_29_1729,Big5,2020.2.4,60.08192951974862,
,Engaging in unprotected sex. (H),,,,,,0,26,26,26,,,,,,,,,,,,,,,,,,,,,,,,,,,,,,27.70024841099803,None,27.70024841099803,None,27.70024841099803,None,3,0.449,0.010709380396292545,None,2.0,,,,,,,,,,,,,,,,,,,,,,,,,,,,,,,,,,,,,,,,,,,,,,,,,,,,001,,,2020_Oct_29_1729,Big5,2020.2.4,60.08192951974862,
,Stealing an additional TV cable connection off the one you pay for. (E) ,,,,,,0,27,27,27,,,,,,,,,,,,,,,,,,,,,,,,,,,,,,28.181812237002305,None,28.181812237002305,None,28.181812237002305,None,3,0.444,0.004767484395415522,None,2.0,,,,,,,,,,,,,,,,,,,,,,,,,,,,,,,,,,,,,,,,,,,,,,,,,,,,001,,,2020_Oct_29_1729,Big5,2020.2.4,60.08192951974862,
,Not wearing a seatbelt when being a passenger in the front seat. (H),,,,,,0,28,28,28,,,,,,,,,,,,,,,,,,,,,,,,,,,,,,28.647747725000954,None,28.647747725000954,None,28.647747725000954,None,3,0.442,0.004542930400930345,None,2.0,,,,,,,,,,,,,,,,,,,,,,,,,,,,,,,,,,,,,,,,,,,,,,,,,,,,001,,,2020_Oct_29_1729,Big5,2020.2.4,60.08192951974862,
,Investing 10% of your annual income in governmental bonds (treasury bills). (I),,,,,,0,29,29,29,,,,,,,,,,,,,,,,,,,,,,,,,,,,,,29.1150925700058,None,29.1150925700058,None,29.1150925700058,None,3,0.415,0.008369786402909085,None,2.0,,,,,,,,,,,,,,,,,,,,,,,,,,,,,,,,,,,,,,,,,,,,,,,,,,,,001,,,2020_Oct_29_1729,Big5,2020.2.4,60.08192951974862,
,Periodically engaging in a dangerous sport (e.g. mountain climbing or sky diving). (R) ,,,,,,0,30,30,30,,,,,,,,,,,,,,,,,,,,,,,,,,,,,,29.548209266999038,None,29.548209266999038,None,29.548209266999038,None,3,0.43,0.008661724394187331,None,2.0,,,,,,,,,,,,,,,,,,,,,,,,,,,,,,,,,,,,,,,,,,,,,,,,,,,,001,,,2020_Oct_29_1729,Big5,2020.2.4,60.08192951974862,
,Not wearing a helmet when riding a motorcycle. (H),,,,,,0,31,31,31,,,,,,,,,,,,,,,,,,,,,,,,,,,,,,29.99886526899354,None,29.99886526899354,None,29.99886526899354,None,3,0.482,0.009795588382985443,None,2.0,,,,,,,,,,,,,,,,,,,,,,,,,,,,,,,,,,,,,,,,,,,,,,,,,,,,001,,,2020_Oct_29_1729,Big5,2020.2.4,60.08192951974862,
,Gambling a week's income at a casino. (G),,,,,,0,32,32,32,,,,,,,,,,,,,,,,,,,,,,,,,,,,,,30.498720639996463,None,30.498720639996463,None,30.498720639996463,None,3,0.413,0.00811265638913028,None,2.0,,,,,,,,,,,,,,,,,,,,,,,,,,,,,,,,,,,,,,,,,,,,,,,,,,,,001,,,2020_Oct_29_1729,Big5,2020.2.4,60.08192951974862,
,Taking a job that you enjoy over one that is prestigious but less enjoyable. (S),,,,,,0,33,33,33,,,,,,,,,,,,,,,,,,,,,,,,,,,,,,30.931281444994966,None,30.931281444994966,None,30.931281444994966,None,3,0.431,0.00788627439760603,None,2.0,,,,,,,,,,,,,,,,,,,,,,,,,,,,,,,,,,,,,,,,,,,,,,,,,,,,001,,,2020_Oct_29_1729,Big5,2020.2.4,60.08192951974862,
,Defending an unpopular issue that you believe in at a social occasion. (S),,,,,,0,34,34,34,,,,,,,,,,,,,,,,,,,,,,,,,,,,,,31.381892949997564,None,31.381892949997564,None,31.381892949997564,None,3,0.447,0.008885711402399465,None,2.0,,,,,,,,,,,,,,,,,,,,,,,,,,,,,,,,,,,,,,,,,,,,,,,,,,,,001,,,2020_Oct_29_1729,Big5,2020.2.4,60.08192951974862,
,Exposing yourself to the sun without using sunscreen. (H),,,,,,0,35,35,35,,,,,,,,,,,,,,,,,,,,,,,,,,,,,,31.848451056997874,None,31.848451056997874,None,31.848451056997874,None,3,0.412,0.008736583404242992,None,2.0,,,,,,,,,,,,,,,,,,,,,,,,,,,,,,,,,,,,,,,,,,,,,,,,,,,,001,,,2020_Oct_29_1729,Big5,2020.2.4,60.08192951974862,
,Trying out bungee jumping at least once. (R),,,,,,0,36,36,36,,,,,,,,,,,,,,,,,,,,,,,,,,,,,,32.26693773099396,None,32.26693773099396,None,32.26693773099396,None,3,0.416,0.010053669408080168,None,2.0,,,,,,,,,,,,,,,,,,,,,,,,,,,,,,,,,,,,,,,,,,,,,,,,,,,,001,,,2020_Oct_29_1729,Big5,2020.2.4,60.08192951974862,
,"Piloting your own small plane, if you could. (R) ",,,,,,0,37,37,37,,,,,,,,,,,,,,,,,,,,,,,,,,,,,,32.71452588599641,None,32.71452588599641,None,32.71452588599641,None,3,0.415,0.010213862391537987,None,2.0,,,,,,,,,,,,,,,,,,,,,,,,,,,,,,,,,,,,,,,,,,,,,,,,,,,,001,,,2020_Oct_29_1729,Big5,2020.2.4,60.08192951974862,
,Walking home alone at night in a somewhat unsafe area of town. (H),,,,,,0,38,38,38,,,,,,,,,,,,,,,,,,,,,,,,,,,,,,33.14771949200076,None,33.14771949200076,None,33.14771949200076,None,3,0.407,0.0024551923852413893,None,2.0,,,,,,,,,,,,,,,,,,,,,,,,,,,,,,,,,,,,,,,,,,,,,,,,,,,,001,,,2020_Oct_29_1729,Big5,2020.2.4,60.08192951974862,
,Regularly eating high cholesterol foods. (H) ,,,,,,0,39,39,39,,,,,,,,,,,,,,,,,,,,,,,,,,,,,,33.58113731100457,None,33.58113731100457,None,33.58113731100457,None,3,0.41,0.004512366387643851,None,2.0,,,,,,,,,,,,,,,,,,,,,,,,,,,,,,,,,,,,,,,,,,,,,,,,,,,,001,,,2020_Oct_29_1729,Big5,2020.2.4,60.08192951974862,
,Admitting that your tastes are different from those of your friends. (S),,,,,,,,,,0,0,0,0,,,,,,,,,,,,,,,,,,,0.4,,,,,,,,,,,,,,,,,,33.998631405003835,None,36.9497357950022,None,3,1.04,0.0013114793982822448,None,36.9497357950022,None,36.9497357950022,None,36.9497357950022,None,,,,,,,,,,,,,,,,,,,,,,,,,,,,,,,,,,,,,,001,,,2020_Oct_29_1729,Big5,2020.2.4,60.08192951974862,
,"Going camping in the wilderness, beyond the civilization of a campground. (R) ",,,,,,,,,,0,1,1,1,,,,,,,,,,,,,,,,,,,0.4,,,,,,,,,,,,,,,,,,,,38.01469094399363,None,3,0.413,0.00848267538822256,None,38.01469094399363,None,38.01469094399363,None,38.01469094399363,None,,,,,,,,,,,,,,,,,,,,,,,,,,,,,,,,,,,,,,001,,,2020_Oct_29_1729,Big5,2020.2.4,60.08192951974862,
,Betting a day's income at the horse races. (G),,,,,,,,,,0,2,2,2,,,,,,,,,,,,,,,,,,,0.4,,,,,,,,,,,,,,,,,,,,38.44831340300152,None,3,0.409,0.004825059382710606,None,38.44831340300152,None,38.44831340300152,None,38.44831340300152,None,,,,,,,,,,,,,,,,,,,,,,,,,,,,,,,,,,,,,,001,,,2020_Oct_29_1729,Big5,2020.2.4,60.08192951974862,
,Buying an illegal drug for your own use. (H),,,,,,,,,,0,3,3,3,,,,,,,,,,,,,,,,,,,0.4,,,,,,,,,,,,,,,,,,,,38.881667843001196,None,3,0.659,0.002671722395461984,None,38.881667843001196,None,38.881667843001196,None,38.881667843001196,None,,,,,,,,,,,,,,,,,,,,,,,,,,,,,,,,,,,,,,001,,,2020_Oct_29_1729,Big5,2020.2.4,60.08192951974862,
,Cheating on an exam. (E),,,,,,,,,,0,4,4,4,,,,,,,,,,,,,,,,,,,0.4,,,,,,,,,,,,,,,,,,,,39.564755434999825,None,3,0.423,0.00410108441428747,None,39.564755434999825,None,39.564755434999825,None,39.564755434999825,None,,,,,,,,,,,,,,,,,,,,,,,,,,,,,,,,,,,,,,001,,,2020_Oct_29_1729,Big5,2020.2.4,60.08192951974862,
,Chasing a tornado or hurricane by car to take dramatic photos. (R),,,,,,,,,,0,5,5,5,,,,,,,,,,,,,,,,,,,0.4,,,,,,,,,,,,,,,,,,,,40.01505879100296,None,3,0.408,0.0024276494077639654,None,40.01505879100296,None,40.01505879100296,None,40.01505879100296,None,,,,,,,,,,,,,,,,,,,,,,,,,,,,,,,,,,,,,,001,,,2020_Oct_29_1729,Big5,2020.2.4,60.08192951974862,
,Investing 10% of your annual income in a moderate growth mutual fund. (I),,,,,,,,,,0,6,6,6,,,,,,,,,,,,,,,,,,,0.4,,,,,,,,,,,,,,,,,,,,40.447540410998045,None,3,0.689,0.0026504003908485174,None,40.447540410998045,None,40.447540410998045,None,40.447540410998045,None,,,,,,,,,,,,,,,,,,,,,,,,,,,,,,,,,,,,,,001,,,2020_Oct_29_1729,Big5,2020.2.4,60.08192951974862,
,Consuming five or more servings of alcohol in a single evening. (H),,,,,,,,,,0,7,7,7,,,,,,,,,,,,,,,,,,,0.4,,,,,,,,,,,,,,,,,,,,41.16425783900195,None,3,0.409,0.005543495397432707,None,41.16425783900195,None,41.16425783900195,None,41.16425783900195,None,,,,,,,,,,,,,,,,,,,,,,,,,,,,,,,,,,,,,,001,,,2020_Oct_29_1729,Big5,2020.2.4,60.08192951974862,
,Cheating by a significant amount on your income tax return. (E),,,,,,,,,,0,8,8,8,,,,,,,,,,,,,,,,,,,0.4,,,,,,,,,,,,,,,,,,,,41.58432770699437,None,3,0.697,0.009009415385662578,None,41.58432770699437,None,41.58432770699437,None,41.58432770699437,None,,,,,,,,,,,,,,,,,,,,,,,,,,,,,,,,,,,,,,001,,,2020_Oct_29_1729,Big5,2020.2.4,60.08192951974862,
,Disagreeing with your father on a major issue. (S),,,,,,,,,,0,9,9,9,,,,,,,,,,,,,,,,,,,0.4,,,,,,,,,,,,,,,,,,,,42.314642573997844,None,3,0.415,0.008233005399233662,None,42.314642573997844,None,42.314642573997844,None,42.314642573997844,None,,,,,,,,,,,,,,,,,,,,,,,,,,,,,,,,,,,,,,001,,,2020_Oct_29_1729,Big5,2020.2.4,60.08192951974862,
,Betting a day's income at a high stake poker game. (G),,,,,,,,,,0,10,10,10,,,,,,,,,,,,,,,,,,,0.4,,,,,,,,,,,,,,,,,,,,42.74804427099298,None,3,0.66,0.004791550381924026,None,42.74804427099298,None,42.74804427099298,None,42.74804427099298,None,,,,,,,,,,,,,,,,,,,,,,,,,,,,,,,,,,,,,,001,,,2020_Oct_29_1729,Big5,2020.2.4,60.08192951974862,
,Having an affair with a married man or woman. (E),,,,,,,,,,0,11,11,11,,,,,,,,,,,,,,,,,,,0.4,,,,,,,,,,,,,,,,,,,,43.43160423899826,None,3,0.406,0.002938598408945836,None,43.43160423899826,None,43.43160423899826,None,43.43160423899826,None,,,,,,,,,,,,,,,,,,,,,,,,,,,,,,,,,,,,,,001,,,2020_Oct_29_1729,Big5,2020.2.4,60.08192951974862,
,Forging somebody's signature. (E),,,,,,,,,,0,12,12,12,,,,,,,,,,,,,,,,,,,0.4,,,,,,,,,,,,,,,,,,,,43.865128643999924,None,3,0.411,0.006516707391710952,None,43.865128643999924,None,43.865128643999924,None,43.865128643999924,None,,,,,,,,,,,,,,,,,,,,,,,,,,,,,,,,,,,,,,001,,,2020_Oct_29_1729,Big5,2020.2.4,60.08192951974862,
,Passing off somebody else's work as your own. (E),,,,,,,,,,0,13,13,13,,,,,,,,,,,,,,,,,,,0.4,,,,,,,,,,,,,,,,,,,,44.29874552700494,None,3,0.407,0.003386739394045435,None,44.29874552700494,None,44.29874552700494,None,44.29874552700494,None,,,,,,,,,,,,,,,,,,,,,,,,,,,,,,,,,,,,,,001,,,2020_Oct_29_1729,Big5,2020.2.4,60.08192951974862,
,Going on a vacation in a third-world country without prearranged travel and hotel accommodations. (R),,,,,,,,,,0,14,14,14,,,,,,,,,,,,,,,,,,,0.4,,,,,,,,,,,,,,,,,,,,44.73225720900518,None,3,0.607,0.0007174763886723667,None,44.73225720900518,None,44.73225720900518,None,44.73225720900518,None,,,,,,,,,,,,,,,,,,,,,,,,,,,,,,,,,,,,,,001,,,2020_Oct_29_1729,Big5,2020.2.4,60.08192951974862,
,Arguing with a friend about an issue on which he or she has a very different opinion. (S) ,,,,,,,,,,0,15,15,15,,,,,,,,,,,,,,,,,,,0.4,,,,,,,,,,,,,,,,,,,,45.364553116000025,None,3,0.41,0.006560893394635059,None,45.364553116000025,None,45.364553116000025,None,45.364553116000025,None,,,,,,,,,,,,,,,,,,,,,,,,,,,,,,,,,,,,,,001,,,2020_Oct_29_1729,Big5,2020.2.4,60.08192951974862,
,Going down a ski run that is beyond your ability or closed. (R),,,,,,,,,,0,16,16,16,,,,,,,,,,,,,,,,,,,0.4,,,,,,,,,,,,,,,,,,,,45.797690203995444,None,3,0.407,0.005141694375197403,None,45.797690203995444,None,45.797690203995444,None,45.797690203995444,None,,,,,,,,,,,,,,,,,,,,,,,,,,,,,,,,,,,,,,001,,,2020_Oct_29_1729,Big5,2020.2.4,60.08192951974862,
,Investing 5% of your annual income in a very speculative stock. (I),,,,,,,,,,0,17,17,17,,,,,,,,,,,,,,,,,,,0.4,,,,,,,,,,,,,,,,,,,,46.23133424100524,None,3,0.62,0.005937263384112157,None,46.23133424100524,None,46.23133424100524,None,46.23133424100524,None,,,,,,,,,,,,,,,,,,,,,,,,,,,,,,,,,,,,,,001,,,2020_Oct_29_1729,Big5,2020.2.4,60.08192951974862,
,Approaching your boss to ask for a raise. (S),,,,,,,,,,0,18,18,18,,,,,,,,,,,,,,,,,,,0.4,,,,,,,,,,,,,,,,,,,,46.88104484400537,None,3,0.411,0.006854679391835816,None,46.88104484400537,None,46.88104484400537,None,46.88104484400537,None,,,,,,,,,,,,,,,,,,,,,,,,,,,,,,,,,,,,,,001,,,2020_Oct_29_1729,Big5,2020.2.4,60.08192951974862,
,Illegally copying a piece of software. (E) ,,,,,,,,,,0,19,19,19,,,,,,,,,,,,,,,,,,,0.4,,,,,,,,,,,,,,,,,,,,47.31439297100587,None,3,0.641,0.002981724406708963,None,47.31439297100587,None,47.31439297100587,None,47.31439297100587,None,,,,,,,,,,,,,,,,,,,,,,,,,,,,,,,,,,,,,,001,,,2020_Oct_29_1729,Big5,2020.2.4,60.08192951974862,
,Going whitewater rafting during rapid water flows in the spring. (R) ,,,,,,,,,,0,20,20,20,,,,,,,,,,,,,,,,,,,0.4,,,,,,,,,,,,,,,,,,,,47.98072411000612,None,3,0.407,0.004046124406158924,None,47.98072411000612,None,47.98072411000612,None,47.98072411000612,None,,,,,,,,,,,,,,,,,,,,,,,,,,,,,,,,,,,,,,001,,,2020_Oct_29_1729,Big5,2020.2.4,60.08192951974862,
,"Betting a day's income on the outcome of a sporting event (e.g. baseball, soccer, or football). (G)",,,,,,,,,,0,21,21,21,,,,,,,,,,,,,,,,,,,0.4,,,,,,,,,,,,,,,,,,,,48.413917462996324,None,3,0.408,0.0031640313973184675,None,48.413917462996324,None,48.413917462996324,None,48.413917462996324,None,,,,,,,,,,,,,,,,,,,,,,,,,,,,,,,,,,,,,,001,,,2020_Oct_29_1729,Big5,2020.2.4,60.08192951974862,
,Telling a friend if his or her significant other has made a pass at you. (S),,,,,,,,,,0,22,22,22,,,,,,,,,,,,,,,,,,,0.4,,,,,,,,,,,,,,,,,,,,48.8484162800014,None,3,0.621,0.0027891253848792985,None,48.8484162800014,None,48.8484162800014,None,48.8484162800014,None,,,,,,,,,,,,,,,,,,,,,,,,,,,,,,,,,,,,,,001,,,2020_Oct_29_1729,Big5,2020.2.4,60.08192951974862,
,Investing 5% of your annual income in an conservative stock. (I),,,,,,,,,,0,23,23,23,,,,,,,,,,,,,,,,,,,0.4,,,,,,,,,,,,,,,,,,,,49.498414571993635,None,3,0.406,0.0027112354146083817,None,49.498414571993635,None,49.498414571993635,None,49.498414571993635,None,,,,,,,,,,,,,,,,,,,,,,,,,,,,,,,,,,,,,,001,,,2020_Oct_29_1729,Big5,2020.2.4,60.08192951974862,
,Shoplifting a small item (e.g. a lipstick or a pen). (E) ,,,,,,,,,,0,24,24,24,,,,,,,,,,,,,,,,,,,0.4,,,,,,,,,,,,,,,,,,,,49.9311483240017,None,3,0.626,0.003585814396501519,None,49.9311483240017,None,49.9311483240017,None,49.9311483240017,None,,,,,,,,,,,,,,,,,,,,,,,,,,,,,,,,,,,,,,001,,,2020_Oct_29_1729,Big5,2020.2.4,60.08192951974862,
,Wearing provocative or unconventional clothes on occasion. (S),,,,,,,,,,0,25,25,25,,,,,,,,,,,,,,,,,,,0.4,,,,,,,,,,,,,,,,,,,,50.580622060995665,None,3,0.41,0.0068374753900570795,None,50.580622060995665,None,50.580622060995665,None,50.580622060995665,None,,,,,,,,,,,,,,,,,,,,,,,,,,,,,,,,,,,,,,001,,,2020_Oct_29_1729,Big5,2020.2.4,60.08192951974862,
,Engaging in unprotected sex. (H),,,,,,,,,,0,26,26,26,,,,,,,,,,,,,,,,,,,0.4,,,,,,,,,,,,,,,,,,,,51.01505022999481,None,3,0.661,0.006797974405344576,None,51.01505022999481,None,51.01505022999481,None,51.01505022999481,None,,,,,,,,,,,,,,,,,,,,,,,,,,,,,,,,,,,,,,001,,,2020_Oct_29_1729,Big5,2020.2.4,60.08192951974862,
,Stealing an additional TV cable connection off the one you pay for. (E) ,,,,,,,,,,0,27,27,27,,,,,,,,,,,,,,,,,,,0.4,,,,,,,,,,,,,,,,,,,,51.6976417919941,None,3,0.407,0.0035581123956944793,None,51.6976417919941,None,51.6976417919941,None,51.6976417919941,None,,,,,,,,,,,,,,,,,,,,,,,,,,,,,,,,,,,,,,001,,,2020_Oct_29_1729,Big5,2020.2.4,60.08192951974862,
,Not wearing a seatbelt when being a passenger in the front seat. (H),,,,,,,,,,0,28,28,28,,,,,,,,,,,,,,,,,,,0.4,,,,,,,,,,,,,,,,,,,,52.131246916993405,None,3,0.408,0.0038126844010548666,None,52.131246916993405,None,52.131246916993405,None,52.131246916993405,None,,,,,,,,,,,,,,,,,,,,,,,,,,,,,,,,,,,,,,001,,,2020_Oct_29_1729,Big5,2020.2.4,60.08192951974862,
,Investing 10% of your annual income in governmental bonds (treasury bills). (I),,,,,,,,,,0,29,29,29,,,,,,,,,,,,,,,,,,,0.4,,,,,,,,,,,,,,,,,,,,52.5644982369995,None,3,0.613,0.004768687387695536,None,52.5644982369995,None,52.5644982369995,None,52.5644982369995,None,,,,,,,,,,,,,,,,,,,,,,,,,,,,,,,,,,,,,,001,,,2020_Oct_29_1729,Big5,2020.2.4,60.08192951974862,
,Periodically engaging in a dangerous sport (e.g. mountain climbing or sky diving). (R) ,,,,,,,,,,0,30,30,30,,,,,,,,,,,,,,,,,,,0.4,,,,,,,,,,,,,,,,,,,,53.214895401994,None,3,0.407,0.0022610293817706406,None,53.214895401994,None,53.214895401994,None,53.214895401994,None,,,,,,,,,,,,,,,,,,,,,,,,,,,,,,,,,,,,,,001,,,2020_Oct_29_1729,Big5,2020.2.4,60.08192951974862,
,Not wearing a helmet when riding a motorcycle. (H),,,,,,,,,,0,31,31,31,,,,,,,,,,,,,,,,,,,0.4,,,,,,,,,,,,,,,,,,,,53.64859650300059,None,3,0.581,0.002483784395735711,None,53.64859650300059,None,53.64859650300059,None,53.64859650300059,None,,,,,,,,,,,,,,,,,,,,,,,,,,,,,,,,,,,,,,001,,,2020_Oct_29_1729,Big5,2020.2.4,60.08192951974862,
,Gambling a week's income at a casino. (G),,,,,,,,,,0,32,32,32,,,,,,,,,,,,,,,,,,,0.4,,,,,,,,,,,,,,,,,,,,54.26493003900396,None,3,0.408,0.0031802453886484727,None,54.26493003900396,None,54.26493003900396,None,54.26493003900396,None,,,,,,,,,,,,,,,,,,,,,,,,,,,,,,,,,,,,,,001,,,2020_Oct_29_1729,Big5,2020.2.4,60.08192951974862,
,Taking a job that you enjoy over one that is prestigious but less enjoyable. (S),,,,,,,,,,0,33,33,33,,,,,,,,,,,,,,,,,,,0.4,,,,,,,,,,,,,,,,,,,,54.69762420799816,None,3,0.407,0.0010721753787947819,None,54.69762420799816,None,54.69762420799816,None,54.69762420799816,None,,,,,,,,,,,,,,,,,,,,,,,,,,,,,,,,,,,,,,001,,,2020_Oct_29_1729,Big5,2020.2.4,60.08192951974862,
,Defending an unpopular issue that you believe in at a social occasion. (S),,,,,,,,,,0,34,34,34,,,,,,,,,,,,,,,,,,,0.4,,,,,,,,,,,,,,,,,,,,55.131230629995116,None,3,0.589,0.0034296313824597746,None,55.131230629995116,None,55.131230629995116,None,55.131230629995116,None,,,,,,,,,,,,,,,,,,,,,,,,,,,,,,,,,,,,,,001,,,2020_Oct_29_1729,Big5,2020.2.4,60.08192951974862,
,Exposing yourself to the sun without using sunscreen. (H),,,,,,,,,,0,35,35,35,,,,,,,,,,,,,,,,,,,0.4,,,,,,,,,,,,,,,,,,,,55.748622789004,None,3,0.411,0.005380332382628694,None,55.748622789004,None,55.748622789004,None,55.748622789004,None,,,,,,,,,,,,,,,,,,,,,,,,,,,,,,,,,,,,,,001,,,2020_Oct_29_1729,Big5,2020.2.4,60.08192951974862,
,Trying out bungee jumping at least once. (R),,,,,,,,,,0,36,36,36,,,,,,,,,,,,,,,,,,,0.4,,,,,,,,,,,,,,,,,,,,56.18095640199317,None,3,0.643,0.004597360399202444,None,56.18095640199317,None,56.18095640199317,None,56.18095640199317,None,,,,,,,,,,,,,,,,,,,,,,,,,,,,,,,,,,,,,,001,,,2020_Oct_29_1729,Big5,2020.2.4,60.08192951974862,
,"Piloting your own small plane, if you could. (R) ",,,,,,,,,,0,37,37,37,,,,,,,,,,,,,,,,,,,0.4,,,,,,,,,,,,,,,,,,,,56.84793749700475,None,3,0.413,0.005982446382404305,None,56.84793749700475,None,56.84793749700475,None,56.84793749700475,None,,,,,,,,,,,,,,,,,,,,,,,,,,,,,,,,,,,,,,001,,,2020_Oct_29_1729,Big5,2020.2.4,60.08192951974862,
,Walking home alone at night in a somewhat unsafe area of town. (H),,,,,,,,,,0,38,38,38,,,,,,,,,,,,,,,,,,,0.4,,,,,,,,,,,,,,,,,,,,57.29738794900186,None,3,0.641,0.0013455933949444443,None,57.29738794900186,None,57.29738794900186,None,57.29738794900186,None,,,,,,,,,,,,,,,,,,,,,,,,,,,,,,,,,,,,,,001,,,2020_Oct_29_1729,Big5,2020.2.4,60.08192951974862,
,Regularly eating high cholesterol foods. (H) ,,,,,,,,,,0,39,39,39,,,,,,,,,,,,,,,,,,,0.4,,,,,,,,,,,,,,,,,,,,57.96437709899328,None,3,0.412,0.008116274388157763,None,57.96437709899328,None,57.96437709899328,None,57.96437709899328,None,,,,,,,,,,,,,,,,,,,,,,,,,,,,,,,,,,,,,,001,,,2020_Oct_29_1729,Big5,2020.2.4,60.08192951974862,
,Admitting that your tastes are different from those of your friends. (S),,,,,,,,,,,,,,0,0,0,0,,,,,,,,,,,,,,,2.0,,,,,,,,,,,,,,,,,,,,,,,,,,,,,,,,58.381430902998545,None,58.664519102007034,None,58.664519102007034,None,3,1.99,0.0010317243868485093,None,58.664519102007034,None,58.664519102007034,None,,,,,,,,,,,,,,,,,,,,,,,,001,,,2020_Oct_29_1729,Big5,2020.2.4,60.08192951974862,
,"Going camping in the wilderness, beyond the civilization of a campground. (R) ",,,,,,,,,,,,,,0,1,1,1,,,,,,,,,,,,,,,2.0,,,,,,,,,,,,,,,,,,,,,,,,,,,,,,,,,,60.66508687699388,None,60.66508687699388,None,3,0.639,0.0005232863913988695,None,60.66508687699388,None,60.66508687699388,None,,,,,,,,,,,,,,,,,,,,,,,,001,,,2020_Oct_29_1729,Big5,2020.2.4,60.08192951974862,
,Betting a day's income at the horse races. (G),,,,,,,,,,,,,,0,2,2,2,,,,,,,,,,,,,,,2.0,,,,,,,,,,,,,,,,,,,,,,,,,,,,,,,,,,61.331442380003864,None,61.331442380003864,None,3,0.408,0.0051906133885495365,None,61.331442380003864,None,61.331442380003864,None,,,,,,,,,,,,,,,,,,,,,,,,001,,,2020_Oct_29_1729,Big5,2020.2.4,60.08192951974862,
,Buying an illegal drug for your own use. (H),,,,,,,,,,,,,,0,3,3,3,,,,,,,,,,,,,,,2.0,,,,,,,,,,,,,,,,,,,,,,,,,,,,,,,,,,61.764493623006274,None,61.764493623006274,None,3,0.591,0.003674280393170193,None,61.764493623006274,None,61.764493623006274,None,,,,,,,,,,,,,,,,,,,,,,,,001,,,2020_Oct_29_1729,Big5,2020.2.4,60.08192951974862,
,Cheating on an exam. (E),,,,,,,,,,,,,,0,4,4,4,,,,,,,,,,,,,,,2.0,,,,,,,,,,,,,,,,,,,,,,,,,,,,,,,,,,62.380893912006286,None,62.380893912006286,None,3,0.413,0.006671265393379144,None,62.380893912006286,None,62.380893912006286,None,,,,,,,,,,,,,,,,,,,,,,,,001,,,2020_Oct_29_1729,Big5,2020.2.4,60.08192951974862,
,Chasing a tornado or hurricane by car to take dramatic photos. (R),,,,,,,,,,,,,,0,5,5,5,,,,,,,,,,,,,,,2.0,,,,,,,,,,,,,,,,,,,,,,,,,,,,,,,,,,62.8146526000055,None,62.8146526000055,None,3,0.599,0.0019495724118314683,None,62.8146526000055,None,62.8146526000055,None,,,,,,,,,,,,,,,,,,,,,,,,001,,,2020_Oct_29_1729,Big5,2020.2.4,60.08192951974862,
,Investing 10% of your annual income in a moderate growth mutual fund. (I),,,,,,,,,,,,,,0,6,6,6,,,,,,,,,,,,,,,2.0,,,,,,,,,,,,,,,,,,,,,,,,,,,,,,,,,,63.44769150299544,None,63.44769150299544,None,3,0.41,0.005473003373481333,None,63.44769150299544,None,63.44769150299544,None,,,,,,,,,,,,,,,,,,,,,,,,001,,,2020_Oct_29_1729,Big5,2020.2.4,60.08192951974862,
,Consuming five or more servings of alcohol in a single evening. (H),,,,,,,,,,,,,,0,7,7,7,,,,,,,,,,,,,,,2.0,,,,,,,,,,,,,,,,,,,,,,,,,,,,,,,,,,63.881771722997655,None,63.881771722997655,None,3,0.609,0.0021363014093367383,None,63.881771722997655,None,63.881771722997655,None,,,,,,,,,,,,,,,,,,,,,,,,001,,,2020_Oct_29_1729,Big5,2020.2.4,60.08192951974862,
,Cheating by a significant amount on your income tax return. (E),,,,,,,,,,,,,,0,8,8,8,,,,,,,,,,,,,,,2.0,,,,,,,,,,,,,,,,,,,,,,,,,,,,,,,,,,64.51478824000515,None,64.51478824000515,None,3,0.413,0.00942568939353805,None,64.51478824000515,None,64.51478824000515,None,,,,,,,,,,,,,,,,,,,,,,,,001,,,2020_Oct_29_1729,Big5,2020.2.4,60.08192951974862,
,Disagreeing with your father on a major issue. (S),,,,,,,,,,,,,,0,9,9,9,,,,,,,,,,,,,,,2.0,,,,,,,,,,,,,,,,,,,,,,,,,,,,,,,,,,64.94740225099667,None,64.94740225099667,None,3,0.626,0.003939509391784668,None,64.94740225099667,None,64.94740225099667,None,,,,,,,,,,,,,,,,,,,,,,,,001,,,2020_Oct_29_1729,Big5,2020.2.4,60.08192951974862,
,Betting a day's income at a high stake poker game. (G),,,,,,,,,,,,,,0,10,10,10,,,,,,,,,,,,,,,2.0,,,,,,,,,,,,,,,,,,,,,,,,,,,,,,,,,,65.59789826899942,None,65.59789826899942,None,3,0.412,0.006266134398174472,None,65.59789826899942,None,65.59789826899942,None,,,,,,,,,,,,,,,,,,,,,,,,001,,,2020_Oct_29_1729,Big5,2020.2.4,60.08192951974862,
,Having an affair with a married man or woman. (E),,,,,,,,,,,,,,0,11,11,11,,,,,,,,,,,,,,,2.0,,,,,,,,,,,,,,,,,,,,,,,,,,,,,,,,,,66.03177024499746,None,66.03177024499746,None,3,0.574,0.0036780704103875905,None,66.03177024499746,None,66.03177024499746,None,,,,,,,,,,,,,,,,,,,,,,,,001,,,2020_Oct_29_1729,Big5,2020.2.4,60.08192951974862,
,Forging somebody's signature. (E),,,,,,,,,,,,,,0,12,12,12,,,,,,,,,,,,,,,2.0,,,,,,,,,,,,,,,,,,,,,,,,,,,,,,,,,,66.63154808900435,None,66.63154808900435,None,3,0.41,0.005211763404076919,None,66.63154808900435,None,66.63154808900435,None,,,,,,,,,,,,,,,,,,,,,,,,001,,,2020_Oct_29_1729,Big5,2020.2.4,60.08192951974862,
,Passing off somebody else's work as your own. (E),,,,,,,,,,,,,,0,13,13,13,,,,,,,,,,,,,,,2.0,,,,,,,,,,,,,,,,,,,,,,,,,,,,,,,,,,67.06470757299394,None,67.06470757299394,None,3,0.626,0.005666048396960832,None,67.06470757299394,None,67.06470757299394,None,,,,,,,,,,,,,,,,,,,,,,,,001,,,2020_Oct_29_1729,Big5,2020.2.4,60.08192951974862,
,Going on a vacation in a third-world country without prearranged travel and hotel accommodations. (R),,,,,,,,,,,,,,0,14,14,14,,,,,,,,,,,,,,,2.0,,,,,,,,,,,,,,,,,,,,,,,,,,,,,,,,,,67.71467717399355,None,67.71467717399355,None,3,0.409,0.0043500294123077765,None,67.71467717399355,None,67.71467717399355,None,,,,,,,,,,,,,,,,,,,,,,,,001,,,2020_Oct_29_1729,Big5,2020.2.4,60.08192951974862,
,Arguing with a friend about an issue on which he or she has a very different opinion. (S) ,,,,,,,,,,,,,,0,15,15,15,,,,,,,,,,,,,,,2.0,,,,,,,,,,,,,,,,,,,,,,,,,,,,,,,,,,68.14807061399915,None,68.14807061399915,None,3,0.57,0.002493508392944932,None,68.14807061399915,None,68.14807061399915,None,,,,,,,,,,,,,,,,,,,,,,,,001,,,2020_Oct_29_1729,Big5,2020.2.4,60.08192951974862,
,Going down a ski run that is beyond your ability or closed. (R),,,,,,,,,,,,,,0,16,16,16,,,,,,,,,,,,,,,2.0,,,,,,,,,,,,,,,,,,,,,,,,,,,,,,,,,,68.7475433100044,None,68.7475433100044,None,3,0.408,0.0031500203913310543,None,68.7475433100044,None,68.7475433100044,None,,,,,,,,,,,,,,,,,,,,,,,,001,,,2020_Oct_29_1729,Big5,2020.2.4,60.08192951974862,
,Investing 5% of your annual income in a very speculative stock. (I),,,,,,,,,,,,,,0,17,17,17,,,,,,,,,,,,,,,2.0,,,,,,,,,,,,,,,,,,,,,,,,,,,,,,,,,,69.18181244199513,None,69.18181244199513,None,3,0.588,0.00011951940541621298,None,69.18181244199513,None,69.18181244199513,None,,,,,,,,,,,,,,,,,,,,,,,,001,,,2020_Oct_29_1729,Big5,2020.2.4,60.08192951974862,
,Approaching your boss to ask for a raise. (S),,,,,,,,,,,,,,0,18,18,18,,,,,,,,,,,,,,,2.0,,,,,,,,,,,,,,,,,,,,,,,,,,,,,,,,,,69.79769535899686,None,69.79769535899686,None,3,0.41,0.005925065401243046,None,69.79769535899686,None,69.79769535899686,None,,,,,,,,,,,,,,,,,,,,,,,,001,,,2020_Oct_29_1729,Big5,2020.2.4,60.08192951974862,
,Illegally copying a piece of software. (E) ,,,,,,,,,,,,,,0,19,19,19,,,,,,,,,,,,,,,2.0,,,,,,,,,,,,,,,,,,,,,,,,,,,,,,,,,,70.23147997100023,None,70.23147997100023,None,3,0.592,0.0033623453928157687,None,70.23147997100023,None,70.23147997100023,None,,,,,,,,,,,,,,,,,,,,,,,,001,,,2020_Oct_29_1729,Big5,2020.2.4,60.08192951974862,
,Going whitewater rafting during rapid water flows in the spring. (R) ,,,,,,,,,,,,,,0,20,20,20,,,,,,,,,,,,,,,2.0,,,,,,,,,,,,,,,,,,,,,,,,,,,,,,,,,,70.84747246900224,None,70.84747246900224,None,3,0.412,0.0064534683915553614,None,70.84747246900224,None,70.84747246900224,None,,,,,,,,,,,,,,,,,,,,,,,,001,,,2020_Oct_29_1729,Big5,2020.2.4,60.08192951974862,
,"Betting a day's income on the outcome of a sporting event (e.g. baseball, soccer, or football). (G)",,,,,,,,,,,,,,0,21,21,21,,,,,,,,,,,,,,,2.0,,,,,,,,,,,,,,,,,,,,,,,,,,,,,,,,,,71.28044585099269,None,71.28044585099269,None,3,0.538,0.0004303203895688057,None,71.28044585099269,None,71.28044585099269,None,,,,,,,,,,,,,,,,,,,,,,,,001,,,2020_Oct_29_1729,Big5,2020.2.4,60.08192951974862,
,Telling a friend if his or her significant other has made a pass at you. (S),,,,,,,,,,,,,,0,22,22,22,,,,,,,,,,,,,,,2.0,,,,,,,,,,,,,,,,,,,,,,,,,,,,,,,,,,71.84744650000357,None,71.84744650000357,None,3,0.409,0.004607835406204686,None,71.84744650000357,None,71.84744650000357,None,,,,,,,,,,,,,,,,,,,,,,,,001,,,2020_Oct_29_1729,Big5,2020.2.4,60.08192951974862,
,Investing 5% of your annual income in an conservative stock. (I),,,,,,,,,,,,,,0,23,23,23,,,,,,,,,,,,,,,2.0,,,,,,,,,,,,,,,,,,,,,,,,,,,,,,,,,,72.2812619650067,None,72.2812619650067,None,3,0.592,0.0035277594142826274,None,72.2812619650067,None,72.2812619650067,None,,,,,,,,,,,,,,,,,,,,,,,,001,,,2020_Oct_29_1729,Big5,2020.2.4,60.08192951974862,
,Shoplifting a small item (e.g. a lipstick or a pen). (E) ,,,,,,,,,,,,,,0,24,24,24,,,,,,,,,,,,,,,2.0,,,,,,,,,,,,,,,,,,,,,,,,,,,,,,,,,,72.89715878799325,None,72.89715878799325,None,3,0.409,0.0042695234005805105,None,72.89715878799325,None,72.89715878799325,None,,,,,,,,,,,,,,,,,,,,,,,,001,,,2020_Oct_29_1729,Big5,2020.2.4,60.08192951974862,
,Wearing provocative or unconventional clothes on occasion. (S),,,,,,,,,,,,,,0,25,25,25,,,,,,,,,,,,,,,2.0,,,,,,,,,,,,,,,,,,,,,,,,,,,,,,,,,,73.3308992569946,None,73.3308992569946,None,3,0.589,0.0026292723923688754,None,73.3308992569946,None,73.3308992569946,None,,,,,,,,,,,,,,,,,,,,,,,,001,,,2020_Oct_29_1729,Big5,2020.2.4,60.08192951974862,
,Engaging in unprotected sex. (H),,,,,,,,,,,,,,0,26,26,26,,,,,,,,,,,,,,,2.0,,,,,,,,,,,,,,,,,,,,,,,,,,,,,,,,,,73.94781600199349,None,73.94781600199349,None,3,0.408,0.004845157382078469,None,73.94781600199349,None,73.94781600199349,None,,,,,,,,,,,,,,,,,,,,,,,,001,,,2020_Oct_29_1729,Big5,2020.2.4,60.08192951974862,
,Stealing an additional TV cable connection off the one you pay for. (E) ,,,,,,,,,,,,,,0,27,27,27,,,,,,,,,,,,,,,2.0,,,,,,,,,,,,,,,,,,,,,,,,,,,,,,,,,,74.38124000199605,None,74.38124000199605,None,3,0.562,0.005704268376575783,None,74.38124000199605,None,74.38124000199605,None,,,,,,,,,,,,,,,,,,,,,,,,001,,,2020_Oct_29_1729,Big5,2020.2.4,60.08192951974862,
,Not wearing a seatbelt when being a passenger in the front seat. (H),,,,,,,,,,,,,,0,28,28,28,,,,,,,,,,,,,,,2.0,,,,,,,,,,,,,,,,,,,,,,,,,,,,,,,,,,74.96422997700574,None,74.96422997700574,None,3,0.405,0.0033384373964508995,None,74.96422997700574,None,74.96422997700574,None,,,,,,,,,,,,,,,,,,,,,,,,001,,,2020_Oct_29_1729,Big5,2020.2.4,60.08192951974862,
,Investing 10% of your annual income in governmental bonds (treasury bills). (I),,,,,,,,,,,,,,0,29,29,29,,,,,,,,,,,,,,,2.0,,,,,,,,,,,,,,,,,,,,,,,,,,,,,,,,,,75.3981527480064,None,75.3981527480064,None,3,0.659,0.0021930114016868174,None,75.3981527480064,None,75.3981527480064,None,,,,,,,,,,,,,,,,,,,,,,,,001,,,2020_Oct_29_1729,Big5,2020.2.4,60.08192951974862,
,Periodically engaging in a dangerous sport (e.g. mountain climbing or sky diving). (R) ,,,,,,,,,,,,,,0,30,30,30,,,,,,,,,,,,,,,2.0,,,,,,,,,,,,,,,,,,,,,,,,,,,,,,,,,,76.0983677769982,None,76.0983677769982,None,3,0.621,0.01658027280063834,None,76.0983677769982,None,76.0983677769982,None,,,,,,,,,,,,,,,,,,,,,,,,001,,,2020_Oct_29_1729,Big5,2020.2.4,60.08192951974862,
,Not wearing a helmet when riding a motorcycle. (H),,,,,,,,,,,,,,0,31,31,31,,,,,,,,,,,,,,,2.0,,,,,,,,,,,,,,,,,,,,,,,,,,,,,,,,,,76.74787678700523,None,76.74787678700523,None,3,0.41,0.005558284392463975,None,76.74787678700523,None,76.74787678700523,None,,,,,,,,,,,,,,,,,,,,,,,,001,,,2020_Oct_29_1729,Big5,2020.2.4,60.08192951974862,
,Gambling a week's income at a casino. (G),,,,,,,,,,,,,,0,32,32,32,,,,,,,,,,,,,,,2.0,,,,,,,,,,,,,,,,,,,,,,,,,,,,,,,,,,77.18085180800699,None,77.18085180800699,None,3,0.626,0.004655403390643187,None,77.18085180800699,None,77.18085180800699,None,,,,,,,,,,,,,,,,,,,,,,,,001,,,2020_Oct_29_1729,Big5,2020.2.4,60.08192951974862,
,Taking a job that you enjoy over one that is prestigious but less enjoyable. (S),,,,,,,,,,,,,,0,33,33,33,,,,,,,,,,,,,,,2.0,,,,,,,,,,,,,,,,,,,,,,,,,,,,,,,,,,77.84783609000442,None,77.84783609000442,None,3,0.68,0.00590434338664636,None,77.84783609000442,None,77.84783609000442,None,,,,,,,,,,,,,,,,,,,,,,,,001,,,2020_Oct_29_1729,Big5,2020.2.4,60.08192951974862,
,Defending an unpopular issue that you believe in at a social occasion. (S),,,,,,,,,,,,,,0,34,34,34,,,,,,,,,,,,,,,2.0,,,,,,,,,,,,,,,,,,,,,,,,,,,,,,,,,,78.54770573499263,None,78.54770573499263,None,3,0.411,0.006654880387941375,None,78.54770573499263,None,78.54770573499263,None,,,,,,,,,,,,,,,,,,,,,,,,001,,,2020_Oct_29_1729,Big5,2020.2.4,60.08192951974862,
,Exposing yourself to the sun without using sunscreen. (H),,,,,,,,,,,,,,0,35,35,35,,,,,,,,,,,,,,,2.0,,,,,,,,,,,,,,,,,,,,,,,,,,,,,,,,,,78.98047058099473,None,78.98047058099473,None,3,0.543,0.004106878404854797,None,78.98047058099473,None,78.98047058099473,None,,,,,,,,,,,,,,,,,,,,,,,,001,,,2020_Oct_29_1729,Big5,2020.2.4,60.08192951974862,
,Trying out bungee jumping at least once. (R),,,,,,,,,,,,,,0,36,36,36,,,,,,,,,,,,,,,2.0,,,,,,,,,,,,,,,,,,,,,,,,,,,,,,,,,,79.54751235799631,None,79.54751235799631,None,3,0.411,0.007768426410621032,None,79.54751235799631,None,79.54751235799631,None,,,,,,,,,,,,,,,,,,,,,,,,001,,,2020_Oct_29_1729,Big5,2020.2.4,60.08192951974862,
,"Piloting your own small plane, if you could. (R) ",,,,,,,,,,,,,,0,37,37,37,,,,,,,,,,,,,,,2.0,,,,,,,,,,,,,,,,,,,,,,,,,,,,,,,,,,79.98117494500184,None,79.98117494500184,None,3,0.592,0.003663658382720314,None,79.98117494500184,None,79.98117494500184,None,,,,,,,,,,,,,,,,,,,,,,,,001,,,2020_Oct_29_1729,Big5,2020.2.4,60.08192951974862,
,Walking home alone at night in a somewhat unsafe area of town. (H),,,,,,,,,,,,,,0,38,38,38,,,,,,,,,,,,,,,2.0,,,,,,,,,,,,,,,,,,,,,,,,,,,,,,,,,,80.59798113700526,None,80.59798113700526,None,3,0.414,0.00868872737919446,None,80.59798113700526,None,80.59798113700526,None,,,,,,,,,,,,,,,,,,,,,,,,001,,,2020_Oct_29_1729,Big5,2020.2.4,60.08192951974862,
,Regularly eating high cholesterol foods. (H) ,,,,,,,,,,,,,,0,39,39,39,,,,,,,,,,,,,,,2.0,,,,,,,,,,,,,,,,,,,,,,,,,,,,,,,,,,81.03127305500675,None,81.03127305500675,None,3,0.593,0.00597212539287284,None,81.03127305500675,None,81.03127305500675,None,,,,,,,,,,,,,,,,,,,,,,,,001,,,2020_Oct_29_1729,Big5,2020.2.4,60.08192951974862,
,,Tends to be quiet.,,,,,,,,,,,,,,,,,0,0,0,0,,,,,,,,,,,1.0,,,,,,,,,,,,,,,,,,,,,,,,,,,,,,,,,,,,,,,,,,,,,,81.63186132400006,None,2,1.123,0.0024084853939712048,None,84.99827839600039,None,84.99827839600039,None,84.99827839600039,None,84.99827839600039,None,84.99827839600039,None,84.99827839600039,None,84.99827839600039,None,,,,001,,,2020_Oct_29_1729,Big5,2020.2.4,60.08192951974862,
,,"Is compassionate, has a soft heart.",,,,,,,,,,,,,,,,,0,1,1,1,,,,,,,,,,,1.0,,,,,,,,,,,,,,,,,,,,,,,,,,,,,,,,,,,,,,,,,,,,,,,,2,0.644,0.004459475399926305,None,86.13108088000445,None,86.13108088000445,None,86.13108088000445,None,86.13108088000445,None,86.13108088000445,None,86.13108088000445,None,86.13108088000445,None,,,,001,,,2020_Oct_29_1729,Big5,2020.2.4,60.08192951974862,
,,Tends to be disorganized.,,,,,,,,,,,,,,,,,0,2,2,2,,,,,,,,,,,1.0,,,,,,,,,,,,,,,,,,,,,,,,,,,,,,,,,,,,,,,,,,,,,,,,2,0.409,0.004869491385761648,None,86.79737532700528,None,86.79737532700528,None,86.79737532700528,None,86.79737532700528,None,86.79737532700528,None,86.79737532700528,None,86.79737532700528,None,,,,001,,,2020_Oct_29_1729,Big5,2020.2.4,60.08192951974862,
,,Worries a lot.,,,,,,,,,,,,,,,,,0,3,3,3,,,,,,,,,,,1.0,,,,,,,,,,,,,,,,,,,,,,,,,,,,,,,,,,,,,,,,,,,,,,,,2,0.58,0.005491793403052725,None,87.23127440099779,None,87.23127440099779,None,87.23127440099779,None,87.23127440099779,None,87.23127440099779,None,87.23127440099779,None,87.23127440099779,None,,,,001,,,2020_Oct_29_1729,Big5,2020.2.4,60.08192951974862,
,,"Is fascinated by art, music, or literature.",,,,,,,,,,,,,,,,,0,4,4,4,,,,,,,,,,,1.0,,,,,,,,,,,,,,,,,,,,,,,,,,,,,,,,,,,,,,,,,,,,,,,,2,0.593,0.003188336399034597,None,87.84710794099374,None,87.84710794099374,None,87.84710794099374,None,87.84710794099374,None,87.84710794099374,None,87.84710794099374,None,87.84710794099374,None,,,,001,,,2020_Oct_29_1729,Big5,2020.2.4,60.08192951974862,
,,"Is dominant, acts as a leader.",,,,,,,,,,,,,,,,,0,5,5,5,,,,,,,,,,,1.0,,,,,,,,,,,,,,,,,,,,,,,,,,,,,,,,,,,,,,,,,,,,,,,,2,0.413,0.006845831390819512,None,88.48070146600367,None,88.48070146600367,None,88.48070146600367,None,88.48070146600367,None,88.48070146600367,None,88.48070146600367,None,88.48070146600367,None,,,,001,,,2020_Oct_29_1729,Big5,2020.2.4,60.08192951974862,
,,Is sometimes rude to others.,,,,,,,,,,,,,,,,,0,6,6,6,,,,,,,,,,,1.0,,,,,,,,,,,,,,,,,,,,,,,,,,,,,,,,,,,,,,,,,,,,,,,,2,0.556,0.0034100113989552483,None,88.91407217399683,None,88.91407217399683,None,88.91407217399683,None,88.91407217399683,None,88.91407217399683,None,88.91407217399683,None,88.91407217399683,None,,,,001,,,2020_Oct_29_1729,Big5,2020.2.4,60.08192951974862,
,,Has difficulty getting started on tasks.,,,,,,,,,,,,,,,,,0,7,7,7,,,,,,,,,,,1.0,,,,,,,,,,,,,,,,,,,,,,,,,,,,,,,,,,,,,,,,,,,,,,,,2,0.41,0.00464389639091678,None,89.49779155099532,None,89.49779155099532,None,89.49779155099532,None,89.49779155099532,None,89.49779155099532,None,89.49779155099532,None,89.49779155099532,None,,,,001,,,2020_Oct_29_1729,Big5,2020.2.4,60.08192951974862,
,,"Tends to feel depressed, blue.",,,,,,,,,,,,,,,,,0,8,8,8,,,,,,,,,,,1.0,,,,,,,,,,,,,,,,,,,,,,,,,,,,,,,,,,,,,,,,,,,,,,,,2,0.561,0.00488670141203329,None,89.93024080099713,None,89.93024080099713,None,89.93024080099713,None,89.93024080099713,None,89.93024080099713,None,89.93024080099713,None,89.93024080099713,None,,,,001,,,2020_Oct_29_1729,Big5,2020.2.4,60.08192951974862,
,,Has little interest in abstract ideas.,,,,,,,,,,,,,,,,,0,9,9,9,,,,,,,,,,,1.0,,,,,,,,,,,,,,,,,,,,,,,,,,,,,,,,,,,,,,,,,,,,,,,,2,0.406,0.0042555833933874965,None,90.51382929900137,None,90.51382929900137,None,90.51382929900137,None,90.51382929900137,None,90.51382929900137,None,90.51382929900137,None,90.51382929900137,None,,,,001,,,2020_Oct_29_1729,Big5,2020.2.4,60.08192951974862,
,,Is full of energy. ,,,,,,,,,,,,,,,,,0,10,10,10,,,,,,,,,,,1.0,,,,,,,,,,,,,,,,,,,,,,,,,,,,,,,,,,,,,,,,,,,,,,,,2,0.578,0.00558898039162159,None,90.9477337290009,None,90.9477337290009,None,90.9477337290009,None,90.9477337290009,None,90.9477337290009,None,90.9477337290009,None,90.9477337290009,None,,,,001,,,2020_Oct_29_1729,Big5,2020.2.4,60.08192951974862,
,,Assumes the best about people.,,,,,,,,,,,,,,,,,0,11,11,11,,,,,,,,,,,1.0,,,,,,,,,,,,,,,,,,,,,,,,,,,,,,,,,,,,,,,,,,,,,,,,2,0.661,0.0049923343904083595,None,91.54705915199884,None,91.54705915199884,None,91.54705915199884,None,91.54705915199884,None,91.54705915199884,None,91.54705915199884,None,91.54705915199884,None,,,,001,,,2020_Oct_29_1729,Big5,2020.2.4,60.08192951974862,
,,"Is reliable, can always be counted on.",,,,,,,,,,,,,,,,,0,12,12,12,,,,,,,,,,,1.0,,,,,,,,,,,,,,,,,,,,,,,,,,,,,,,,,,,,,,,,,,,,,,,,2,0.412,0.007559308389318176,None,92.2303026610025,None,92.2303026610025,None,92.2303026610025,None,92.2303026610025,None,92.2303026610025,None,92.2303026610025,None,92.2303026610025,None,,,,001,,,2020_Oct_29_1729,Big5,2020.2.4,60.08192951974862,
,,"Is emotionally stable, not easily upset.",,,,,,,,,,,,,,,,,0,13,13,13,,,,,,,,,,,1.0,,,,,,,,,,,,,,,,,,,,,,,,,,,,,,,,,,,,,,,,,,,,,,,,2,0.574,0.0032103023841045797,None,92.66412674100138,None,92.66412674100138,None,92.66412674100138,None,92.66412674100138,None,92.66412674100138,None,92.66412674100138,None,92.66412674100138,None,,,,001,,,2020_Oct_29_1729,Big5,2020.2.4,60.08192951974862,
,,"Is original, comes up with new ideas.",,,,,,,,,,,,,,,,,0,14,14,14,,,,,,,,,,,1.0,,,,,,,,,,,,,,,,,,,,,,,,,,,,,,,,,,,,,,,,,,,,,,,,2,0.411,0.006442870377213694,None,93.28122285100108,None,93.28122285100108,None,93.28122285100108,None,93.28122285100108,None,93.28122285100108,None,93.28122285100108,None,93.28122285100108,None,,,,001,,,2020_Oct_29_1729,Big5,2020.2.4,60.08192951974862,
,,"Is outgoing, sociable.",,,,,,,,,,,,,,,,,0,15,15,15,,,,,,,,,,,1.0,,,,,,,,,,,,,,,,,,,,,,,,,,,,,,,,,,,,,,,,,,,,,,,,2,0.546,0.0046541274059563875,None,93.71464921100414,None,93.71464921100414,None,93.71464921100414,None,93.71464921100414,None,93.71464921100414,None,93.71464921100414,None,93.71464921100414,None,,,,001,,,2020_Oct_29_1729,Big5,2020.2.4,60.08192951974862,
,,Can be cold and uncaring.,,,,,,,,,,,,,,,,,0,16,16,16,,,,,,,,,,,1.0,,,,,,,,,,,,,,,,,,,,,,,,,,,,,,,,,,,,,,,,,,,,,,,,2,0.644,0.0037546503881458193,None,94.29722788299841,None,94.29722788299841,None,94.29722788299841,None,94.29722788299841,None,94.29722788299841,None,94.29722788299841,None,94.29722788299841,None,,,,001,,,2020_Oct_29_1729,Big5,2020.2.4,60.08192951974862,
,,Keep things neat and tidy.,,,,,,,,,,,,,,,,,0,17,17,17,,,,,,,,,,,1.0,,,,,,,,,,,,,,,,,,,,,,,,,,,,,,,,,,,,,,,,,,,,,,,,2,0.408,0.002088445398840122,None,94.98082323400013,None,94.98082323400013,None,94.98082323400013,None,94.98082323400013,None,94.98082323400013,None,94.98082323400013,None,94.98082323400013,None,,,,001,,,2020_Oct_29_1729,Big5,2020.2.4,60.08192951974862,
,,"Is relaxed, handles stress well. ",,,,,,,,,,,,,,,,,0,18,18,18,,,,,,,,,,,1.0,,,,,,,,,,,,,,,,,,,,,,,,,,,,,,,,,,,,,,,,,,,,,,,,2,0.593,0.0038877323968335986,None,95.41382199799409,None,95.41382199799409,None,95.41382199799409,None,95.41382199799409,None,95.41382199799409,None,95.41382199799409,None,95.41382199799409,None,,,,001,,,2020_Oct_29_1729,Big5,2020.2.4,60.08192951974862,
,,Has few artistic interests.,,,,,,,,,,,,,,,,,0,19,19,19,,,,,,,,,,,1.0,,,,,,,,,,,,,,,,,,,,,,,,,,,,,,,,,,,,,,,,,,,,,,,,2,0.641,0.0068506453972077,None,96.03091261799273,None,96.03091261799273,None,96.03091261799273,None,96.03091261799273,None,96.03091261799273,None,96.03091261799273,None,96.03091261799273,None,,,,001,,,2020_Oct_29_1729,Big5,2020.2.4,60.08192951974862,
,,Prefers to have others take charge.,,,,,,,,,,,,,,,,,0,20,20,20,,,,,,,,,,,1.0,,,,,,,,,,,,,,,,,,,,,,,,,,,,,,,,,,,,,,,,,,,,,,,,2,0.66,0.0044787393999286,None,96.69779292300518,None,96.69779292300518,None,96.69779292300518,None,96.69779292300518,None,96.69779292300518,None,96.69779292300518,None,96.69779292300518,None,,,,001,,,2020_Oct_29_1729,Big5,2020.2.4,60.08192951974862,
,,"Is respectful, treats others with respect.",,,,,,,,,,,,,,,,,0,21,21,21,,,,,,,,,,,1.0,,,,,,,,,,,,,,,,,,,,,,,,,,,,,,,,,,,,,,,,,,,,,,,,2,0.409,0.004375112388515845,None,97.38045950699598,None,97.38045950699598,None,97.38045950699598,None,97.38045950699598,None,97.38045950699598,None,97.38045950699598,None,97.38045950699598,None,,,,001,,,2020_Oct_29_1729,Big5,2020.2.4,60.08192951974862,
,,"Is persistent, works until the task is finished.",,,,,,,,,,,,,,,,,0,22,22,22,,,,,,,,,,,1.0,,,,,,,,,,,,,,,,,,,,,,,,,,,,,,,,,,,,,,,,,,,,,,,,2,0.58,0.004877936386037618,None,97.81386333800037,None,97.81386333800037,None,97.81386333800037,None,97.81386333800037,None,97.81386333800037,None,97.81386333800037,None,97.81386333800037,None,,,,001,,,2020_Oct_29_1729,Big5,2020.2.4,60.08192951974862,
,,"Feels secure, comfortable with self.",,,,,,,,,,,,,,,,,0,23,23,23,,,,,,,,,,,1.0,,,,,,,,,,,,,,,,,,,,,,,,,,,,,,,,,,,,,,,,,,,,,,,,2,0.41,0.0034250293974764645,None,98.43106959600118,None,98.43106959600118,None,98.43106959600118,None,98.43106959600118,None,98.43106959600118,None,98.43106959600118,None,98.43106959600118,None,,,,001,,,2020_Oct_29_1729,Big5,2020.2.4,60.08192951974862,
,,"Is complex, a deep thinker.",,,,,,,,,,,,,,,,,0,24,24,24,,,,,,,,,,,1.0,,,,,,,,,,,,,,,,,,,,,,,,,,,,,,,,,,,,,,,,,,,,,,,,2,0.51,0.0025230664032278582,None,98.88091433000227,None,98.88091433000227,None,98.88091433000227,None,98.88091433000227,None,98.88091433000227,None,98.88091433000227,None,98.88091433000227,None,,,,001,,,2020_Oct_29_1729,Big5,2020.2.4,60.08192951974862,
,,Is less active than other people.,,,,,,,,,,,,,,,,,0,25,25,25,,,,,,,,,,,1.0,,,,,,,,,,,,,,,,,,,,,,,,,,,,,,,,,,,,,,,,,,,,,,,,2,0.642,0.0035492054012138397,None,99.43134387400642,None,99.43134387400642,None,99.43134387400642,None,99.43134387400642,None,99.43134387400642,None,99.43134387400642,None,99.43134387400642,None,,,,001,,,2020_Oct_29_1729,Big5,2020.2.4,60.08192951974862,
,,Tends to find fault with others.,,,,,,,,,,,,,,,,,0,26,26,26,,,,,,,,,,,1.0,,,,,,,,,,,,,,,,,,,,,,,,,,,,,,,,,,,,,,,,,,,,,,,,2,0.412,0.007877259398810565,None,100.09771053299482,None,100.09771053299482,None,100.09771053299482,None,100.09771053299482,None,100.09771053299482,None,100.09771053299482,None,100.09771053299482,None,,,,001,,,2020_Oct_29_1729,Big5,2020.2.4,60.08192951974862,
,,Can be somewhat careless.,,,,,,,,,,,,,,,,,0,27,27,27,,,,,,,,,,,1.0,,,,,,,,,,,,,,,,,,,,,,,,,,,,,,,,,,,,,,,,,,,,,,,,2,0.511,0.004418851400259882,None,100.54676751399529,None,100.54676751399529,None,100.54676751399529,None,100.54676751399529,None,100.54676751399529,None,100.54676751399529,None,100.54676751399529,None,,,,001,,,2020_Oct_29_1729,Big5,2020.2.4,60.08192951974862,
,,"Is temperamental, gets emotional easily.",,,,,,,,,,,,,,,,,0,28,28,28,,,,,,,,,,,1.0,,,,,,,,,,,,,,,,,,,,,,,,,,,,,,,,,,,,,,,,,,,,,,,,2,0.407,0.002603434390039183,None,101.09707270399667,None,101.09707270399667,None,101.09707270399667,None,101.09707270399667,None,101.09707270399667,None,101.09707270399667,None,101.09707270399667,None,,,,001,,,2020_Oct_29_1729,Big5,2020.2.4,60.08192951974862,
,,Has little creativity. ,,,,,,,,,,,,,,,,,0,29,29,29,,,,,,,,,,,1.0,,,,,,,,,,,,,,,,,,,,,,,,,,,,,,,,,,,,,,,,,,,,,,,,2,0.626,0.0051846803980879486,None,101.53023184899939,None,101.53023184899939,None,101.53023184899939,None,101.53023184899939,None,101.53023184899939,None,101.53023184899939,None,101.53023184899939,None,,,,001,,,2020_Oct_29_1729,Big5,2020.2.4,60.08192951974862,
,,,,,,,,,,,,,,,,,,,,,,,,,,,,,,,,,,,,,,,,,,,,,,,,,,,,,,,,,,,,,,,,,,,,,,,,,,,,,,,,,,,,,,,,,,,,,,,,,,,102.16473313499591,None,,,,,,,,,
