Scenario,C,Charac,trials.thisRepN,trials.thisTrialN,trials.thisN,trials.thisIndex,trials_2.thisRepN,trials_2.thisTrialN,trials_2.thisN,trials_2.thisIndex,trials_3.thisRepN,trials_3.thisTrialN,trials_3.thisN,trials_3.thisIndex,trials_4.thisRepN,trials_4.thisTrialN,trials_4.thisN,trials_4.thisIndex,trials_5.thisRepN,trials_5.thisTrialN,trials_5.thisN,trials_5.thisIndex,IntroScreen.started,IntroScreen.stopped,instructions.started,instructions.stopped,scenario1.started,scenario1.stopped,notAtAll.started,notAtAll.stopped,veryMuch.started,veryMuch.stopped,lastRating,rating.response,rating.rt,rating.started,rating.stopped,riskBehaviorScaleScreen.started,riskBehaviorScaleScreen.stopped,activity.started,activity.stopped,notAtAll2.started,notAtAll2.stopped,ExtremelyLikely.started,ExtremelyLikely.stopped,rating2.response,rating2.rt,rating2.started,rating2.stopped,Rating,unlikely.started,unlikely.stopped,neutral.started,neutral.stopped,Likely.started,Likely.stopped,riskPerceptionInstructions.started,riskPerceptionInstructions.stopped,riskPerceptionActivity2.started,riskPerceptionActivity2.stopped,rating3.response,rating3.rt,rating3.started,rating3.stopped,notAtAllRisky.started,notAtAllRisky.stopped,ModeratelyRisky.started,ModeratelyRisky.stopped,ExtremelyRisky.started,ExtremelyRisky.stopped,expBenefits.started,expBenefits.stopped,riskBenefitsScale.started,riskBenefitsScale.stopped,noBenefits.started,noBenefits.stopped,rating4.response,rating4.rt,rating4.started,rating4.stopped,greatBenefits.started,greatBenefits.stopped,moderateBenefits.started,moderateBenefits.stopped,big5Screen.started,big5Screen.stopped,rating5.response,rating5.rt,rating5.started,rating5.stopped,characText.started,characText.stopped,Someone.started,Someone.stopped,disagreeStrongly.started,disagreeStrongly.stopped,disagreeALittle.started,disagreeALittle.stopped,Neutral.started,Neutral.stopped,AgreeALittle.started,AgreeALittle.stopped,AgreeStrongly.started,AgreeStrongly.stopped,congratsText.started,congratsText.stopped,participant,session,sex,age,date,expName,psychopyVersion,frameRate,
Locating your car in a very large parking lot or parking garage.,,,0,0,0,3,,,,,,,,,,,,,,,,,5.714426941995043,None,6.098027771993657,None,6.598115189990494,None,6.598115189990494,None,6.598115189990494,None,0.2,2,1.861,0.004822382616112009,None,,,,,,,,,,,,,,,,,,,,,,,,,,,,,,,,,,,,,,,,,,,,,,,,,,,,,,,,,,,,,,,,,,,,,,,001,,,2020_Oct_30_1734,Big5,2020.2.4,59.836302114201246,
Finding your way to an appointment in an area of a city or town with which you are not familiar. ,,,0,1,1,7,,,,,,,,,,,,,,,,,,,,,8.48183145999792,None,8.48183145999792,None,8.48183145999792,None,0.4,3,0.487,0.015568439601338468,None,,,,,,,,,,,,,,,,,,,,,,,,,,,,,,,,,,,,,,,,,,,,,,,,,,,,,,,,,,,,,,,,,,,,,,,001,,,2020_Oct_30_1734,Big5,2020.2.4,59.836302114201246,
Leaving a store that you have been to for the first time and deciding which way to turn to get to a destination.,,,0,2,2,0,,,,,,,,,,,,,,,,,,,,,8.997242108991486,None,8.997242108991486,None,8.997242108991486,None,0.4,3,0.455,0.0014615043037338182,None,,,,,,,,,,,,,,,,,,,,,,,,,,,,,,,,,,,,,,,,,,,,,,,,,,,,,,,,,,,,,,,,,,,,,,,001,,,2020_Oct_30_1734,Big5,2020.2.4,59.836302114201246,
Trying a new route that you think will be a shortcut without the benefit of a map.,,,0,3,3,4,,,,,,,,,,,,,,,,,,,,,9.481193642990547,None,9.481193642990547,None,9.481193642990547,None,0.6000000000000001,4,0.408,0.005552283299039118,None,,,,,,,,,,,,,,,,,,,,,,,,,,,,,,,,,,,,,,,,,,,,,,,,,,,,,,,,,,,,,,,,,,,,,,,001,,,2020_Oct_30_1734,Big5,2020.2.4,59.836302114201246,
Finding your way around in an unfamiliar mall.,,,0,4,4,6,,,,,,,,,,,,,,,,,,,,,9.913633743999526,None,9.913633743999526,None,9.913633743999526,None,0.2,2,0.426,0.004049542301800102,None,,,,,,,,,,,,,,,,,,,,,,,,,,,,,,,,,,,,,,,,,,,,,,,,,,,,,,,,,,,,,,,,,,,,,,,001,,,2020_Oct_30_1734,Big5,2020.2.4,59.836302114201246,
Finding your way out of a complex arrangement of offices that you have visited for the first time.,,,0,5,5,1,,,,,,,,,,,,,,,,,,,,,10.363748903997475,None,10.363748903997475,None,10.363748903997475,None,0.2,2,0.524,0.0026241953164571896,None,,,,,,,,,,,,,,,,,,,,,,,,,,,,,,,,,,,,,,,,,,,,,,,,,,,,,,,,,,,,,,,,,,,,,,,001,,,2020_Oct_30_1734,Big5,2020.2.4,59.836302114201246,
"Pointing in the direction of a place outside that someone wants to get to and has asked you for directions, when you are in a windowless room.",,,0,6,6,2,,,,,,,,,,,,,,,,,,,,,10.913753600994824,None,10.913753600994824,None,10.913753600994824,None,0.4,3,0.489,0.016566724589210935,None,,,,,,,,,,,,,,,,,,,,,,,,,,,,,,,,,,,,,,,,,,,,,,,,,,,,,,,,,,,,,,,,,,,,,,,001,,,2020_Oct_30_1734,Big5,2020.2.4,59.836302114201246,
Finding your way back to a familiar area after realizing you have made a wrong turn and become lost while driving.,,,0,7,7,5,,,,,,,,,,,,,,,,,,,,,11.430734287001542,None,11.430734287001542,None,11.430734287001542,None,0.4,3,0.855,0.000745487297535874,None,,,,,,,,,,,,,,,,,,,,,,,,,,,,,,,,,,,,,,,,,,,,,,,,,,,,,,,,,,,,,,,,,,,,,,,001,,,2020_Oct_30_1734,Big5,2020.2.4,59.836302114201246,
,Admitting that your tastes are different from those of your friends. (S),,,,,,0,0,0,0,,,,,,,,,,,,,,,,,,,,,,,,,,,,12.297573000992998,None,13.464580549989478,None,13.464580549989478,None,13.464580549989478,None,2,0.918,0.01190657059487421,None,1.0,13.464580549989478,None,13.464580549989478,None,13.464580549989478,None,,,,,,,,,,,,,,,,,,,,,,,,,,,,,,,,,,,,,,,,,,,,,,,,,,,,001,,,2020_Oct_30_1734,Big5,2020.2.4,59.836302114201246,
,Arguing with a friend who has a very different opinion on an issue. (S),,,,,,0,1,1,1,,,,,,,,,,,,,,,,,,,,,,,,,,,,,,14.397511304996442,None,14.397511304996442,None,14.397511304996442,None,3,0.756,0.00017641429440118372,None,2.0,14.397511304996442,None,14.397511304996442,None,14.397511304996442,None,,,,,,,,,,,,,,,,,,,,,,,,,,,,,,,,,,,,,,,,,,,,,,,,,,,,001,,,2020_Oct_30_1734,Big5,2020.2.4,59.836302114201246,
,Asking your boss for a raise. (S),,,,,,0,2,2,2,,,,,,,,,,,,,,,,,,,,,,,,,,,,,,15.180602951993933,None,15.180602951993933,None,15.180602951993933,None,3,0.59,0.00465356330096256,None,2.0,15.180602951993933,None,15.180602951993933,None,15.180602951993933,None,,,,,,,,,,,,,,,,,,,,,,,,,,,,,,,,,,,,,,,,,,,,,,,,,,,,001,,,2020_Oct_30_1734,Big5,2020.2.4,59.836302114201246,
,Betting a day's income at the horse races. (F),,,,,,0,3,3,3,,,,,,,,,,,,,,,,,,,,,,,,,,,,,,15.797467014999711,None,15.797467014999711,None,15.797467014999711,None,2,0.506,0.002246964315418154,None,1.0,15.797467014999711,None,15.797467014999711,None,15.797467014999711,None,,,,,,,,,,,,,,,,,,,,,,,,,,,,,,,,,,,,,,,,,,,,,,,,,,,,001,,,2020_Oct_30_1734,Big5,2020.2.4,59.836302114201246,
,Buying an illegal drug for your own use. (E),,,,,,0,4,4,4,,,,,,,,,,,,,,,,,,,,,,,,,,,,,,16.380524067993974,None,16.380524067993974,None,16.380524067993974,None,2,0.462,0.005830945199704729,None,1.0,16.380524067993974,None,16.380524067993974,None,16.380524067993974,None,,,,,,,,,,,,,,,,,,,,,,,,,,,,,,,,,,,,,,,,,,,,,,,,,,,,001,,,2020_Oct_30_1734,Big5,2020.2.4,59.836302114201246,
,Chasing a tornado by car to take photos that you can sell to the press. (R) ,,,,,,0,5,5,5,,,,,,,,,,,,,,,,,,,,,,,,,,,,,,16.863853923001443,None,16.863853923001443,None,16.863853923001443,None,2,0.44,0.0014547713071806356,None,1.0,16.863853923001443,None,16.863853923001443,None,16.863853923001443,None,,,,,,,,,,,,,,,,,,,,,,,,,,,,,,,,,,,,,,,,,,,,,,,,,,,,001,,,2020_Oct_30_1734,Big5,2020.2.4,59.836302114201246,
,Cheating a fair amount on your income tax. (E) ,,,,,,0,6,6,6,,,,,,,,,,,,,,,,,,,,,,,,,,,,,,17.330760249999003,None,17.330760249999003,None,17.330760249999003,None,2,0.409,0.005251351307379082,None,1.0,17.330760249999003,None,17.330760249999003,None,17.330760249999003,None,,,,,,,,,,,,,,,,,,,,,,,,,,,,,,,,,,,,,,,,,,,,,,,,,,,,001,,,2020_Oct_30_1734,Big5,2020.2.4,59.836302114201246,
,Cheating on an exam. (E) ,,,,,,0,7,7,7,,,,,,,,,,,,,,,,,,,,,,,,,,,,,,17.764520187993185,None,17.764520187993185,None,17.764520187993185,None,2,0.661,0.006123749306425452,None,1.0,17.764520187993185,None,17.764520187993185,None,17.764520187993185,None,,,,,,,,,,,,,,,,,,,,,,,,,,,,,,,,,,,,,,,,,,,,,,,,,,,,001,,,2020_Oct_30_1734,Big5,2020.2.4,59.836302114201246,
,Co-signing a new car loan for a friend. (F),,,,,,0,8,8,8,,,,,,,,,,,,,,,,,,,,,,,,,,,,,,18.447226192991366,None,18.447226192991366,None,18.447226192991366,None,2,0.476,0.0035478553036227822,None,1.0,18.447226192991366,None,18.447226192991366,None,18.447226192991366,None,,,,,,,,,,,,,,,,,,,,,,,,,,,,,,,,,,,,,,,,,,,,,,,,,,,,001,,,2020_Oct_30_1734,Big5,2020.2.4,59.836302114201246,
,Dating someone that you are working with. (S),,,,,,0,9,9,9,,,,,,,,,,,,,,,,,,,,,,,,,,,,,,18.947668927998166,None,18.947668927998166,None,18.947668927998166,None,2,0.424,0.004713324306067079,None,1.0,18.947668927998166,None,18.947668927998166,None,18.947668927998166,None,,,,,,,,,,,,,,,,,,,,,,,,,,,,,,,,,,,,,,,,,,,,,,,,,,,,001,,,2020_Oct_30_1734,Big5,2020.2.4,59.836302114201246,
,Deciding to share an apartment with someone you don't know well. (S),,,,,,0,10,10,10,,,,,,,,,,,,,,,,,,,,,,,,,,,,,,19.397770655996283,None,19.397770655996283,None,19.397770655996283,None,2,0.439,0.002463294309563935,None,1.0,19.397770655996283,None,19.397770655996283,None,19.397770655996283,None,,,,,,,,,,,,,,,,,,,,,,,,,,,,,,,,,,,,,,,,,,,,,,,,,,,,001,,,2020_Oct_30_1734,Big5,2020.2.4,59.836302114201246,
,Disagreeing with your father on a major issue. (S),,,,,,0,11,11,11,,,,,,,,,,,,,,,,,,,,,,,,,,,,,,19.8643876399874,None,19.8643876399874,None,19.8643876399874,None,2,0.424,0.003783217311138287,None,1.0,19.8643876399874,None,19.8643876399874,None,19.8643876399874,None,,,,,,,,,,,,,,,,,,,,,,,,,,,,,,,,,,,,,,,,,,,,,,,,,,,,001,,,2020_Oct_30_1734,Big5,2020.2.4,59.836302114201246,
,Driving home after you had three drinks in the last two hours. (E),,,,,,0,12,12,12,,,,,,,,,,,,,,,,,,,,,,,,,,,,,,20.314398130998597,None,20.314398130998597,None,20.314398130998597,None,2,0.491,0.004231703307596035,None,1.0,20.314398130998597,None,20.314398130998597,None,20.314398130998597,None,,,,,,,,,,,,,,,,,,,,,,,,,,,,,,,,,,,,,,,,,,,,,,,,,,,,001,,,2020_Oct_30_1734,Big5,2020.2.4,59.836302114201246,
,Eating 'expired' food products that still 'look okay'. (H),,,,,,0,13,13,13,,,,,,,,,,,,,,,,,,,,,,,,,,,,,,20.830774282992934,None,20.830774282992934,None,20.830774282992934,None,2,0.411,0.007243790314532816,None,1.0,20.830774282992934,None,20.830774282992934,None,20.830774282992934,None,,,,,,,,,,,,,,,,,,,,,,,,,,,,,,,,,,,,,,,,,,,,,,,,,,,,001,,,2020_Oct_30_1734,Big5,2020.2.4,59.836302114201246,
,Exploring an unknown city or section of town. (R) ,,,,,,0,14,14,14,,,,,,,,,,,,,,,,,,,,,,,,,,,,,,21.263906945998315,None,21.263906945998315,None,21.263906945998315,None,2,0.658,0.002820174297085032,None,1.0,21.263906945998315,None,21.263906945998315,None,21.263906945998315,None,,,,,,,,,,,,,,,,,,,,,,,,,,,,,,,,,,,,,,,,,,,,,,,,,,,,001,,,2020_Oct_30_1734,Big5,2020.2.4,59.836302114201246,
,Forging somebody's signature. (E),,,,,,0,15,15,15,,,,,,,,,,,,,,,,,,,,,,,,,,,,,,21.947442933000275,None,21.947442933000275,None,21.947442933000275,None,2,0.409,0.003837150303297676,None,1.0,21.947442933000275,None,21.947442933000275,None,21.947442933000275,None,,,,,,,,,,,,,,,,,,,,,,,,,,,,,,,,,,,,,,,,,,,,,,,,,,,,001,,,2020_Oct_30_1734,Big5,2020.2.4,59.836302114201246,
,Frequent binge drinking. (H),,,,,,0,16,16,16,,,,,,,,,,,,,,,,,,,,,,,,,,,,,,22.38134779399843,None,22.38134779399843,None,22.38134779399843,None,3,0.407,0.002913047297624871,None,2.0,22.38134779399843,None,22.38134779399843,None,22.38134779399843,None,,,,,,,,,,,,,,,,,,,,,,,,,,,,,,,,,,,,,,,,,,,,,,,,,,,,001,,,2020_Oct_30_1734,Big5,2020.2.4,59.836302114201246,
,Going camping in the wild. (R),,,,,,0,17,17,17,,,,,,,,,,,,,,,,,,,,,,,,,,,,,,22.814266193992808,None,22.814266193992808,None,22.814266193992808,None,3,0.528,0.006157540308777243,None,2.0,22.814266193992808,None,22.814266193992808,None,22.814266193992808,None,,,,,,,,,,,,,,,,,,,,,,,,,,,,,,,,,,,,,,,,,,,,,,,,,,,,001,,,2020_Oct_30_1734,Big5,2020.2.4,59.836302114201246,
,Going down a ski run that is too hard or closed. (R),,,,,,0,18,18,18,,,,,,,,,,,,,,,,,,,,,,,,,,,,,,23.363709548997576,None,23.363709548997576,None,23.363709548997576,None,2,0.407,0.002554804304963909,None,1.0,23.363709548997576,None,23.363709548997576,None,23.363709548997576,None,,,,,,,,,,,,,,,,,,,,,,,,,,,,,,,,,,,,,,,,,,,,,,,,,,,,001,,,2020_Oct_30_1734,Big5,2020.2.4,59.836302114201246,
,Going on a safari in Kenya. (R) ,,,,,,0,19,19,19,,,,,,,,,,,,,,,,,,,,,,,,,,,,,,23.797342372999992,None,23.797342372999992,None,23.797342372999992,None,2,0.559,0.0031741393031552434,None,1.0,23.797342372999992,None,23.797342372999992,None,23.797342372999992,None,,,,,,,,,,,,,,,,,,,,,,,,,,,,,,,,,,,,,,,,,,,,,,,,,,,,001,,,2020_Oct_30_1734,Big5,2020.2.4,59.836302114201246,
,Going on a two-week vacation in a foreign country without booking accommodations ahead. (R),,,,,,0,20,20,20,,,,,,,,,,,,,,,,,,,,,,,,,,,,,,24.380620350988465,None,24.380620350988465,None,24.380620350988465,None,2,0.607,0.0010265293094562367,None,1.0,24.380620350988465,None,24.380620350988465,None,24.380620350988465,None,,,,,,,,,,,,,,,,,,,,,,,,,,,,,,,,,,,,,,,,,,,,,,,,,,,,001,,,2020_Oct_30_1734,Big5,2020.2.4,59.836302114201246,
,Going whitewater rafting at high water in the spring. (R),,,,,,0,21,21,21,,,,,,,,,,,,,,,,,,,,,,,,,,,,,,25.014307246994576,None,25.014307246994576,None,25.014307246994576,None,2,0.405,0.0013919542980147526,None,1.0,25.014307246994576,None,25.014307246994576,None,25.014307246994576,None,,,,,,,,,,,,,,,,,,,,,,,,,,,,,,,,,,,,,,,,,,,,,,,,,,,,001,,,2020_Oct_30_1734,Big5,2020.2.4,59.836302114201246,
,Ignoring some persistent physical pain by not going to the doctor. (H),,,,,,0,22,22,22,,,,,,,,,,,,,,,,,,,,,,,,,,,,,,25.446870585990837,None,25.446870585990837,None,25.446870585990837,None,2,0.419,0.015741253606393002,None,1.0,25.446870585990837,None,25.446870585990837,None,25.446870585990837,None,,,,,,,,,,,,,,,,,,,,,,,,,,,,,,,,,,,,,,,,,,,,,,,,,,,,001,,,2020_Oct_30_1734,Big5,2020.2.4,59.836302114201246,
,Illegally copying a piece of software. (E),,,,,,0,23,23,23,,,,,,,,,,,,,,,,,,,,,,,,,,,,,,25.897351622988936,None,25.897351622988936,None,25.897351622988936,None,2,0.407,0.004479486291529611,None,1.0,25.897351622988936,None,25.897351622988936,None,25.897351622988936,None,,,,,,,,,,,,,,,,,,,,,,,,,,,,,,,,,,,,,,,,,,,,,,,,,,,,001,,,2020_Oct_30_1734,Big5,2020.2.4,59.836302114201246,
,Taking a medical drug that has a high likelihood of negative side effects. (H),,,,,,0,24,24,24,,,,,,,,,,,,,,,,,,,,,,,,,,,,,,26.330432987990207,None,26.330432987990207,None,26.330432987990207,None,2,0.407,0.0018369563040323555,None,1.0,26.330432987990207,None,26.330432987990207,None,26.330432987990207,None,,,,,,,,,,,,,,,,,,,,,,,,,,,,,,,,,,,,,,,,,,,,,,,,,,,,001,,,2020_Oct_30_1734,Big5,2020.2.4,59.836302114201246,
,Traveling on a commercial airplane. (R) ,,,,,,0,25,25,25,,,,,,,,,,,,,,,,,,,,,,,,,,,,,,26.763867880988983,None,26.763867880988983,None,26.763867880988983,None,2,0.591,0.004171085325651802,None,1.0,26.763867880988983,None,26.763867880988983,None,26.763867880988983,None,,,,,,,,,,,,,,,,,,,,,,,,,,,,,,,,,,,,,,,,,,,,,,,,,,,,001,,,2020_Oct_30_1734,Big5,2020.2.4,59.836302114201246,
,Plagiarizing a term paper. (E) ,,,,,,0,26,26,26,,,,,,,,,,,,,,,,,,,,,,,,,,,,,,27.380350699997507,None,27.380350699997507,None,27.380350699997507,None,2,0.41,0.006725088300299831,None,1.0,27.380350699997507,None,27.380350699997507,None,27.380350699997507,None,,,,,,,,,,,,,,,,,,,,,,,,,,,,,,,,,,,,,,,,,,,,,,,,,,,,001,,,2020_Oct_30_1734,Big5,2020.2.4,59.836302114201246,
,Engaging in unprotected sex. (H),,,,,,0,27,27,27,,,,,,,,,,,,,,,,,,,,,,,,,,,,,,27.81363887200132,None,27.81363887200132,None,27.81363887200132,None,2,0.41,0.005411992300651036,None,1.0,27.81363887200132,None,27.81363887200132,None,27.81363887200132,None,,,,,,,,,,,,,,,,,,,,,,,,,,,,,,,,,,,,,,,,,,,,,,,,,,,,001,,,2020_Oct_30_1734,Big5,2020.2.4,59.836302114201246,
,Investing 10% of your annual income in a blue chip stock. (F),,,,,,0,28,28,28,,,,,,,,,,,,,,,,,,,,,,,,,,,,,,28.24676285299938,None,28.24676285299938,None,28.24676285299938,None,2,0.667,0.01455811460618861,None,1.0,28.24676285299938,None,28.24676285299938,None,28.24676285299938,None,,,,,,,,,,,,,,,,,,,,,,,,,,,,,,,,,,,,,,,,,,,,,,,,,,,,001,,,2020_Oct_30_1734,Big5,2020.2.4,59.836302114201246,
,Investing 10% of your annual income in a very speculative stock. (F),,,,,,0,29,29,29,,,,,,,,,,,,,,,,,,,,,,,,,,,,,,28.94682057799946,None,28.94682057799946,None,28.94682057799946,None,2,0.408,0.0030602703045587987,None,1.0,28.94682057799946,None,28.94682057799946,None,28.94682057799946,None,,,,,,,,,,,,,,,,,,,,,,,,,,,,,,,,,,,,,,,,,,,,,,,,,,,,001,,,2020_Oct_30_1734,Big5,2020.2.4,59.836302114201246,
,Investing 10% of your annual income in government bonds (treasury bills). (F),,,,,,0,30,30,30,,,,,,,,,,,,,,,,,,,,,,,,,,,,,,29.380003977988963,None,29.380003977988963,None,29.380003977988963,None,2,0.752,0.015360747594968416,None,1.0,29.380003977988963,None,29.380003977988963,None,29.380003977988963,None,,,,,,,,,,,,,,,,,,,,,,,,,,,,,,,,,,,,,,,,,,,,,,,,,,,,001,,,2020_Oct_30_1734,Big5,2020.2.4,59.836302114201246,
,Investing in a business that has a good chance of failing. (F),,,,,,0,31,31,31,,,,,,,,,,,,,,,,,,,,,,,,,,,,,,30.163733526991564,None,30.163733526991564,None,30.163733526991564,None,2,0.406,0.0031306053133448586,None,1.0,30.163733526991564,None,30.163733526991564,None,30.163733526991564,None,,,,,,,,,,,,,,,,,,,,,,,,,,,,,,,,,,,,,,,,,,,,,,,,,,,,001,,,2020_Oct_30_1734,Big5,2020.2.4,59.836302114201246,
,Leading in a friend an amount of money equivalent to one month's income. (F),,,,,,0,32,32,32,,,,,,,,,,,,,,,,,,,,,,,,,,,,,,30.597242591000395,None,30.597242591000395,None,30.597242591000395,None,3,0.408,0.0032985363068291917,None,2.0,30.597242591000395,None,30.597242591000395,None,30.597242591000395,None,,,,,,,,,,,,,,,,,,,,,,,,,,,,,,,,,,,,,,,,,,,,,,,,,,,,001,,,2020_Oct_30_1734,Big5,2020.2.4,59.836302114201246,
,Moving to a new city. (S),,,,,,0,33,33,33,,,,,,,,,,,,,,,,,,,,,,,,,,,,,,31.030973978995462,None,31.030973978995462,None,31.030973978995462,None,3,0.409,0.0047838663012953475,None,2.0,31.030973978995462,None,31.030973978995462,None,31.030973978995462,None,,,,,,,,,,,,,,,,,,,,,,,,,,,,,,,,,,,,,,,,,,,,,,,,,,,,001,,,2020_Oct_30_1734,Big5,2020.2.4,59.836302114201246,
,Never using sunscreen when you sunbathe. (H),,,,,,0,34,34,34,,,,,,,,,,,,,,,,,,,,,,,,,,,,,,31.464450833998853,None,31.464450833998853,None,31.464450833998853,None,3,0.674,0.004182648306596093,None,2.0,31.464450833998853,None,31.464450833998853,None,31.464450833998853,None,,,,,,,,,,,,,,,,,,,,,,,,,,,,,,,,,,,,,,,,,,,,,,,,,,,,001,,,2020_Oct_30_1734,Big5,2020.2.4,59.836302114201246,
,Never wearing a seatbelt. (H),,,,,,0,35,35,35,,,,,,,,,,,,,,,,,,,,,,,,,,,,,,32.16372719699575,None,32.16372719699575,None,32.16372719699575,None,2,0.41,0.0063967392925405875,None,1.0,32.16372719699575,None,32.16372719699575,None,32.16372719699575,None,,,,,,,,,,,,,,,,,,,,,,,,,,,,,,,,,,,,,,,,,,,,,,,,,,,,001,,,2020_Oct_30_1734,Big5,2020.2.4,59.836302114201246,
,Not having a smoke alarm in or outside of your bedroom. (H),,,,,,0,36,36,36,,,,,,,,,,,,,,,,,,,,,,,,,,,,,,32.597358960993006,None,32.597358960993006,None,32.597358960993006,None,2,0.639,0.003355556313181296,None,1.0,32.597358960993006,None,32.597358960993006,None,32.597358960993006,None,,,,,,,,,,,,,,,,,,,,,,,,,,,,,,,,,,,,,,,,,,,,,,,,,,,,001,,,2020_Oct_30_1734,Big5,2020.2.4,59.836302114201246,
,Openly disagreeing with your boss in front of your coworkers. (S),,,,,,0,37,37,37,,,,,,,,,,,,,,,,,,,,,,,,,,,,,,33.263977483991766,None,33.263977483991766,None,33.263977483991766,None,2,0.405,0.0007362243050010875,None,1.0,33.263977483991766,None,33.263977483991766,None,33.263977483991766,None,,,,,,,,,,,,,,,,,,,,,,,,,,,,,,,,,,,,,,,,,,,,,,,,,,,,001,,,2020_Oct_30_1734,Big5,2020.2.4,59.836302114201246,
,Periodically engaging in a dangerous sport (e.g. mountain climbing or sky diving). (R) ,,,,,,0,38,38,38,,,,,,,,,,,,,,,,,,,,,,,,,,,,,,33.69676700000127,None,33.69676700000127,None,33.69676700000127,None,2,0.637,0.00022944230295252055,None,1.0,33.69676700000127,None,33.69676700000127,None,33.69676700000127,None,,,,,,,,,,,,,,,,,,,,,,,,,,,,,,,,,,,,,,,,,,,,,,,,,,,,001,,,2020_Oct_30_1734,Big5,2020.2.4,59.836302114201246,
,Regularly riding your bicycle without a helmet. (H),,,,,,0,39,39,39,,,,,,,,,,,,,,,,,,,,,,,,,,,,,,34.36341705099039,None,34.36341705099039,None,34.36341705099039,None,1,0.675,0.0031020802998682484,None,0,34.36341705099039,None,34.36341705099039,None,34.36341705099039,None,,,,,,,,,,,,,,,,,,,,,,,,,,,,,,,,,,,,,,,,,,,,,,,,,,,,001,,,2020_Oct_30_1734,Big5,2020.2.4,59.836302114201246,
,Shoplifting a small item (e.g. a lipstick or a pen). (E) ,,,,,,0,40,40,40,,,,,,,,,,,,,,,,,,,,,,,,,,,,,,35.06335689399566,None,35.06335689399566,None,35.06335689399566,None,2,0.41,0.004800809299922548,None,1.0,35.06335689399566,None,35.06335689399566,None,35.06335689399566,None,,,,,,,,,,,,,,,,,,,,,,,,,,,,,,,,,,,,,,,,,,,,,,,,,,,,001,,,2020_Oct_30_1734,Big5,2020.2.4,59.836302114201246,
,Smoking a pack of cigarettes per day. (H),,,,,,0,41,41,41,,,,,,,,,,,,,,,,,,,,,,,,,,,,,,35.497364055991056,None,35.497364055991056,None,35.497364055991056,None,2,0.644,0.005392405306338333,None,1.0,35.497364055991056,None,35.497364055991056,None,35.497364055991056,None,,,,,,,,,,,,,,,,,,,,,,,,,,,,,,,,,,,,,,,,,,,,,,,,,,,,001,,,2020_Oct_30_1734,Big5,2020.2.4,59.836302114201246,
,Speaking your mind about an unpopular issue at a social occasion. (S) ,,,,,,0,42,42,42,,,,,,,,,,,,,,,,,,,,,,,,,,,,,,36.16436258298927,None,36.16436258298927,None,36.16436258298927,None,2,0.408,0.002773606320261024,None,1.0,36.16436258298927,None,36.16436258298927,None,36.16436258298927,None,,,,,,,,,,,,,,,,,,,,,,,,,,,,,,,,,,,,,,,,,,,,,,,,,,,,001,,,2020_Oct_30_1734,Big5,2020.2.4,59.836302114201246,
,Spending money impulsively without thinking about the consequences. (F),,,,,,0,43,43,43,,,,,,,,,,,,,,,,,,,,,,,,,,,,,,36.597266576995025,None,36.597266576995025,None,36.597266576995025,None,2,0.672,0.0005798133061034605,None,1.0,36.597266576995025,None,36.597266576995025,None,36.597266576995025,None,,,,,,,,,,,,,,,,,,,,,,,,,,,,,,,,,,,,,,,,,,,,,,,,,,,,001,,,2020_Oct_30_1734,Big5,2020.2.4,59.836302114201246,
,Stealing an additional TV cable connection. (E) ,,,,,,0,44,44,44,,,,,,,,,,,,,,,,,,,,,,,,,,,,,,37.29668349400163,None,37.29668349400163,None,37.29668349400163,None,2,0.423,0.0009091552929021418,None,1.0,37.29668349400163,None,37.29668349400163,None,37.29668349400163,None,,,,,,,,,,,,,,,,,,,,,,,,,,,,,,,,,,,,,,,,,,,,,,,,,,,,001,,,2020_Oct_30_1734,Big5,2020.2.4,59.836302114201246,
,Taking a day's income to play the slot-machines at a casino. (F),,,,,,0,45,45,45,,,,,,,,,,,,,,,,,,,,,,,,,,,,,,37.74699099699501,None,37.74699099699501,None,37.74699099699501,None,2,0.407,0.0036923342995578423,None,1.0,37.74699099699501,None,37.74699099699501,None,37.74699099699501,None,,,,,,,,,,,,,,,,,,,,,,,,,,,,,,,,,,,,,,,,,,,,,,,,,,,,001,,,2020_Oct_30_1734,Big5,2020.2.4,59.836302114201246,
,Taking a job where you get paid exclusively on a commission basis. (F),,,,,,0,46,46,46,,,,,,,,,,,,,,,,,,,,,,,,,,,,,,38.179933733001235,None,38.179933733001235,None,38.179933733001235,None,2,0.591,0.0038706773048033938,None,1.0,38.179933733001235,None,38.179933733001235,None,38.179933733001235,None,,,,,,,,,,,,,,,,,,,,,,,,,,,,,,,,,,,,,,,,,,,,,,,,,,,,001,,,2020_Oct_30_1734,Big5,2020.2.4,59.836302114201246,
,Trying bungee jumping. (R),,,,,,0,47,47,47,,,,,,,,,,,,,,,,,,,,,,,,,,,,,,38.79770961900067,None,38.79770961900067,None,38.79770961900067,None,2,0.411,0.006080212304368615,None,1.0,38.79770961900067,None,38.79770961900067,None,38.79770961900067,None,,,,,,,,,,,,,,,,,,,,,,,,,,,,,,,,,,,,,,,,,,,,,,,,,,,,001,,,2020_Oct_30_1734,Big5,2020.2.4,59.836302114201246,
,Using office supplies for your personal business. (E),,,,,,0,48,48,48,,,,,,,,,,,,,,,,,,,,,,,,,,,,,,39.230382598994765,None,39.230382598994765,None,39.230382598994765,None,2,0.407,0.0033390463067917153,None,1.0,39.230382598994765,None,39.230382598994765,None,39.230382598994765,None,,,,,,,,,,,,,,,,,,,,,,,,,,,,,,,,,,,,,,,,,,,,,,,,,,,,001,,,2020_Oct_30_1734,Big5,2020.2.4,59.836302114201246,
,Wearing unconventional clothes. (S),,,,,,0,49,49,49,,,,,,,,,,,,,,,,,,,,,,,,,,,,,,39.66447130499,None,39.66447130499,None,39.66447130499,None,3,0.576,0.002895724304835312,None,2.0,39.66447130499,None,39.66447130499,None,39.66447130499,None,,,,,,,,,,,,,,,,,,,,,,,,,,,,,,,,,,,,,,,,,,,,,,,,,,,,001,,,2020_Oct_30_1734,Big5,2020.2.4,59.836302114201246,
,Admitting that your tastes are different from those of your friends. (S),,,,,,,,,,0,0,0,0,,,,,,,,,,,,,,,,,,,0.2,,,,,,,,,,,,,,,,,,,,,,,,40.24717702298949,None,41.86383860898786,None,2,0.592,0.002779974296572618,None,41.86383860898786,None,41.86383860898786,None,41.86383860898786,None,,,,,,,,,,,,,,,,,,,,,,,,,,,,,,,,,,,,,,001,,,2020_Oct_30_1734,Big5,2020.2.4,59.836302114201246,
,Arguing with a friend who has a very different opinion on an issue. (S),,,,,,,,,,0,1,1,1,,,,,,,,,,,,,,,,,,,0.2,,,,,,,,,,,,,,,,,,,,,,,,,,42.480417664992274,None,2,0.69,0.0027315953193465248,None,42.480417664992274,None,42.480417664992274,None,42.480417664992274,None,,,,,,,,,,,,,,,,,,,,,,,,,,,,,,,,,,,,,,001,,,2020_Oct_30_1734,Big5,2020.2.4,59.836302114201246,
,Asking your boss for a raise. (S),,,,,,,,,,0,2,2,2,,,,,,,,,,,,,,,,,,,0.2,,,,,,,,,,,,,,,,,,,,,,,,,,43.19713880299241,None,2,0.643,0.006964578293263912,None,43.19713880299241,None,43.19713880299241,None,43.19713880299241,None,,,,,,,,,,,,,,,,,,,,,,,,,,,,,,,,,,,,,,001,,,2020_Oct_30_1734,Big5,2020.2.4,59.836302114201246,
,Betting a day's income at the horse races. (F),,,,,,,,,,0,3,3,3,,,,,,,,,,,,,,,,,,,0.2,,,,,,,,,,,,,,,,,,,,,,,,,,43.86369968499639,None,2,0.628,0.006149881301098503,None,43.86369968499639,None,43.86369968499639,None,43.86369968499639,None,,,,,,,,,,,,,,,,,,,,,,,,,,,,,,,,,,,,,,001,,,2020_Oct_30_1734,Big5,2020.2.4,59.836302114201246,
,Buying an illegal drug for your own use. (E),,,,,,,,,,0,4,4,4,,,,,,,,,,,,,,,,,,,0.2,,,,,,,,,,,,,,,,,,,,,,,,,,44.51404886299861,None,2,0.46,0.005359009301173501,None,44.51404886299861,None,44.51404886299861,None,44.51404886299861,None,,,,,,,,,,,,,,,,,,,,,,,,,,,,,,,,,,,,,,001,,,2020_Oct_30_1734,Big5,2020.2.4,59.836302114201246,
,Chasing a tornado by car to take photos that you can sell to the press. (R) ,,,,,,,,,,0,5,5,5,,,,,,,,,,,,,,,,,,,0.2,,,,,,,,,,,,,,,,,,,,,,,,,,44.99703040999884,None,2,0.593,0.0044463952945079654,None,44.99703040999884,None,44.99703040999884,None,44.99703040999884,None,,,,,,,,,,,,,,,,,,,,,,,,,,,,,,,,,,,,,,001,,,2020_Oct_30_1734,Big5,2020.2.4,59.836302114201246,
,Cheating a fair amount on your income tax. (E) ,,,,,,,,,,0,6,6,6,,,,,,,,,,,,,,,,,,,0.2,,,,,,,,,,,,,,,,,,,,,,,,,,45.61344102399016,None,2,0.624,0.004199967312160879,None,45.61344102399016,None,45.61344102399016,None,45.61344102399016,None,,,,,,,,,,,,,,,,,,,,,,,,,,,,,,,,,,,,,,001,,,2020_Oct_30_1734,Big5,2020.2.4,59.836302114201246,
,Cheating on an exam. (E) ,,,,,,,,,,0,7,7,7,,,,,,,,,,,,,,,,,,,0.2,,,,,,,,,,,,,,,,,,,,,,,,,,46.26383982799598,None,2,0.693,0.004592145298374817,None,46.26383982799598,None,46.26383982799598,None,46.26383982799598,None,,,,,,,,,,,,,,,,,,,,,,,,,,,,,,,,,,,,,,001,,,2020_Oct_30_1734,Big5,2020.2.4,59.836302114201246,
,Co-signing a new car loan for a friend. (F),,,,,,,,,,0,8,8,8,,,,,,,,,,,,,,,,,,,0.2,,,,,,,,,,,,,,,,,,,,,,,,,,46.98084140798892,None,2,0.697,0.0037555813032668084,None,46.98084140798892,None,46.98084140798892,None,46.98084140798892,None,,,,,,,,,,,,,,,,,,,,,,,,,,,,,,,,,,,,,,001,,,2020_Oct_30_1734,Big5,2020.2.4,59.836302114201246,
,Dating someone that you are working with. (S),,,,,,,,,,0,9,9,9,,,,,,,,,,,,,,,,,,,0.2,,,,,,,,,,,,,,,,,,,,,,,,,,47.714181524992455,None,2,0.41,0.006090743321692571,None,47.714181524992455,None,47.714181524992455,None,47.714181524992455,None,,,,,,,,,,,,,,,,,,,,,,,,,,,,,,,,,,,,,,001,,,2020_Oct_30_1734,Big5,2020.2.4,59.836302114201246,
,Deciding to share an apartment with someone you don't know well. (S),,,,,,,,,,0,10,10,10,,,,,,,,,,,,,,,,,,,0.2,,,,,,,,,,,,,,,,,,,,,,,,,,48.14755540699116,None,2,0.678,0.005482800319441594,None,48.14755540699116,None,48.14755540699116,None,48.14755540699116,None,,,,,,,,,,,,,,,,,,,,,,,,,,,,,,,,,,,,,,001,,,2020_Oct_30_1734,Big5,2020.2.4,59.836302114201246,
,Disagreeing with your father on a major issue. (S),,,,,,,,,,0,11,11,11,,,,,,,,,,,,,,,,,,,0.2,,,,,,,,,,,,,,,,,,,,,,,,,,48.84779230999993,None,2,0.591,0.003081339309574105,None,48.84779230999993,None,48.84779230999993,None,48.84779230999993,None,,,,,,,,,,,,,,,,,,,,,,,,,,,,,,,,,,,,,,001,,,2020_Oct_30_1734,Big5,2020.2.4,59.836302114201246,
,Driving home after you had three drinks in the last two hours. (E),,,,,,,,,,0,12,12,12,,,,,,,,,,,,,,,,,,,0.2,,,,,,,,,,,,,,,,,,,,,,,,,,49.46330060099717,None,2,0.41,0.004358639314887114,None,49.46330060099717,None,49.46330060099717,None,49.46330060099717,None,,,,,,,,,,,,,,,,,,,,,,,,,,,,,,,,,,,,,,001,,,2020_Oct_30_1734,Big5,2020.2.4,59.836302114201246,
,Eating 'expired' food products that still 'look okay'. (H),,,,,,,,,,0,13,13,13,,,,,,,,,,,,,,,,,,,0.2,,,,,,,,,,,,,,,,,,,,,,,,,,49.89762404799694,None,2,0.677,0.003151102311676368,None,49.89762404799694,None,49.89762404799694,None,49.89762404799694,None,,,,,,,,,,,,,,,,,,,,,,,,,,,,,,,,,,,,,,001,,,2020_Oct_30_1734,Big5,2020.2.4,59.836302114201246,
,Exploring an unknown city or section of town. (R) ,,,,,,,,,,0,14,14,14,,,,,,,,,,,,,,,,,,,0.2,,,,,,,,,,,,,,,,,,,,,,,,,,50.596723052993184,None,2,0.414,0.008890523298759945,None,50.596723052993184,None,50.596723052993184,None,50.596723052993184,None,,,,,,,,,,,,,,,,,,,,,,,,,,,,,,,,,,,,,,001,,,2020_Oct_30_1734,Big5,2020.2.4,59.836302114201246,
,Forging somebody's signature. (E),,,,,,,,,,0,15,15,15,,,,,,,,,,,,,,,,,,,0.2,,,,,,,,,,,,,,,,,,,,,,,,,,51.02999401699344,None,2,0.659,0.004630830298992805,None,51.02999401699344,None,51.02999401699344,None,51.02999401699344,None,,,,,,,,,,,,,,,,,,,,,,,,,,,,,,,,,,,,,,001,,,2020_Oct_30_1734,Big5,2020.2.4,59.836302114201246,
,Frequent binge drinking. (H),,,,,,,,,,0,16,16,16,,,,,,,,,,,,,,,,,,,0.2,,,,,,,,,,,,,,,,,,,,,,,,,,51.71405849799339,None,2,0.412,0.006555470303283073,None,51.71405849799339,None,51.71405849799339,None,51.71405849799339,None,,,,,,,,,,,,,,,,,,,,,,,,,,,,,,,,,,,,,,001,,,2020_Oct_30_1734,Big5,2020.2.4,59.836302114201246,
,Going camping in the wild. (R),,,,,,,,,,0,17,17,17,,,,,,,,,,,,,,,,,,,0.2,,,,,,,,,,,,,,,,,,,,,,,,,,52.14746495700092,None,2,0.56,0.005045977290137671,None,52.14746495700092,None,52.14746495700092,None,52.14746495700092,None,,,,,,,,,,,,,,,,,,,,,,,,,,,,,,,,,,,,,,001,,,2020_Oct_30_1734,Big5,2020.2.4,59.836302114201246,
,Going down a ski run that is too hard or closed. (R),,,,,,,,,,0,18,18,18,,,,,,,,,,,,,,,,,,,0.2,,,,,,,,,,,,,,,,,,,,,,,,,,52.72990924899932,None,2,0.407,0.0018748182919807732,None,52.72990924899932,None,52.72990924899932,None,52.72990924899932,None,,,,,,,,,,,,,,,,,,,,,,,,,,,,,,,,,,,,,,001,,,2020_Oct_30_1734,Big5,2020.2.4,59.836302114201246,
,Going on a safari in Kenya. (R) ,,,,,,,,,,0,19,19,19,,,,,,,,,,,,,,,,,,,0.2,,,,,,,,,,,,,,,,,,,,,,,,,,53.16335710599378,None,2,0.641,0.0045106492907507345,None,53.16335710599378,None,53.16335710599378,None,53.16335710599378,None,,,,,,,,,,,,,,,,,,,,,,,,,,,,,,,,,,,,,,001,,,2020_Oct_30_1734,Big5,2020.2.4,59.836302114201246,
,Going on a two-week vacation in a foreign country without booking accommodations ahead. (R),,,,,,,,,,0,20,20,20,,,,,,,,,,,,,,,,,,,0.2,,,,,,,,,,,,,,,,,,,,,,,,,,53.82998084499559,None,2,0.409,0.0027258323098067194,None,53.82998084499559,None,53.82998084499559,None,53.82998084499559,None,,,,,,,,,,,,,,,,,,,,,,,,,,,,,,,,,,,,,,001,,,2020_Oct_30_1734,Big5,2020.2.4,59.836302114201246,
,Going whitewater rafting at high water in the spring. (R),,,,,,,,,,0,21,21,21,,,,,,,,,,,,,,,,,,,0.4,,,,,,,,,,,,,,,,,,,,,,,,,,54.263073424997856,None,3,0.575,0.0028908913081977516,None,54.263073424997856,None,54.263073424997856,None,54.263073424997856,None,,,,,,,,,,,,,,,,,,,,,,,,,,,,,,,,,,,,,,001,,,2020_Oct_30_1734,Big5,2020.2.4,59.836302114201246,
,Ignoring some persistent physical pain by not going to the doctor. (H),,,,,,,,,,0,22,22,22,,,,,,,,,,,,,,,,,,,0.4,,,,,,,,,,,,,,,,,,,,,,,,,,54.86323312399327,None,3,0.557,0.00231591631018091,None,54.86323312399327,None,54.86323312399327,None,54.86323312399327,None,,,,,,,,,,,,,,,,,,,,,,,,,,,,,,,,,,,,,,001,,,2020_Oct_30_1734,Big5,2020.2.4,59.836302114201246,
,Illegally copying a piece of software. (E),,,,,,,,,,0,23,23,23,,,,,,,,,,,,,,,,,,,0.4,,,,,,,,,,,,,,,,,,,,,,,,,,55.44665790098952,None,3,0.611,0.0049409463099436834,None,55.44665790098952,None,55.44665790098952,None,55.44665790098952,None,,,,,,,,,,,,,,,,,,,,,,,,,,,,,,,,,,,,,,001,,,2020_Oct_30_1734,Big5,2020.2.4,59.836302114201246,
,Taking a medical drug that has a high likelihood of negative side effects. (H),,,,,,,,,,0,24,24,24,,,,,,,,,,,,,,,,,,,0.4,,,,,,,,,,,,,,,,,,,,,,,,,,56.08054545598861,None,3,0.525,0.00273832528910134,None,56.08054545598861,None,56.08054545598861,None,56.08054545598861,None,,,,,,,,,,,,,,,,,,,,,,,,,,,,,,,,,,,,,,001,,,2020_Oct_30_1734,Big5,2020.2.4,59.836302114201246,
,Traveling on a commercial airplane. (R) ,,,,,,,,,,0,25,25,25,,,,,,,,,,,,,,,,,,,0.4,,,,,,,,,,,,,,,,,,,,,,,,,,56.62987485999474,None,3,0.642,0.00412177930411417,None,56.62987485999474,None,56.62987485999474,None,56.62987485999474,None,,,,,,,,,,,,,,,,,,,,,,,,,,,,,,,,,,,,,,001,,,2020_Oct_30_1734,Big5,2020.2.4,59.836302114201246,
,Plagiarizing a term paper. (E) ,,,,,,,,,,0,26,26,26,,,,,,,,,,,,,,,,,,,0.4,,,,,,,,,,,,,,,,,,,,,,,,,,57.2967112059996,None,3,0.619,0.003935032305889763,None,57.2967112059996,None,57.2967112059996,None,57.2967112059996,None,,,,,,,,,,,,,,,,,,,,,,,,,,,,,,,,,,,,,,001,,,2020_Oct_30_1734,Big5,2020.2.4,59.836302114201246,
,Engaging in unprotected sex. (H),,,,,,,,,,0,27,27,27,,,,,,,,,,,,,,,,,,,0.4,,,,,,,,,,,,,,,,,,,,,,,,,,57.94737849399098,None,3,0.607,0.005008274310966954,None,57.94737849399098,None,57.94737849399098,None,57.94737849399098,None,,,,,,,,,,,,,,,,,,,,,,,,,,,,,,,,,,,,,,001,,,2020_Oct_30_1734,Big5,2020.2.4,59.836302114201246,
,Investing 10% of your annual income in a blue chip stock. (F),,,,,,,,,,0,28,28,28,,,,,,,,,,,,,,,,,,,0.2,,,,,,,,,,,,,,,,,,,,,,,,,,58.579726215000846,None,2,0.413,0.007033133311779238,None,58.579726215000846,None,58.579726215000846,None,58.579726215000846,None,,,,,,,,,,,,,,,,,,,,,,,,,,,,,,,,,,,,,,001,,,2020_Oct_30_1734,Big5,2020.2.4,59.836302114201246,
,Investing 10% of your annual income in a very speculative stock. (F),,,,,,,,,,0,29,29,29,,,,,,,,,,,,,,,,,,,0.2,,,,,,,,,,,,,,,,,,,,,,,,,,59.013781777000986,None,2,0.502,0.003756681311642751,None,59.013781777000986,None,59.013781777000986,None,59.013781777000986,None,,,,,,,,,,,,,,,,,,,,,,,,,,,,,,,,,,,,,,001,,,2020_Oct_30_1734,Big5,2020.2.4,59.836302114201246,
,Investing 10% of your annual income in government bonds (treasury bills). (F),,,,,,,,,,0,30,30,30,,,,,,,,,,,,,,,,,,,0.2,,,,,,,,,,,,,,,,,,,,,,,,,,59.54684047999035,None,2,0.673,0.002456884292769246,None,59.54684047999035,None,59.54684047999035,None,59.54684047999035,None,,,,,,,,,,,,,,,,,,,,,,,,,,,,,,,,,,,,,,001,,,2020_Oct_30_1734,Big5,2020.2.4,59.836302114201246,
,Investing in a business that has a good chance of failing. (F),,,,,,,,,,0,31,31,31,,,,,,,,,,,,,,,,,,,0.2,,,,,,,,,,,,,,,,,,,,,,,,,,60.2463656829932,None,2,0.409,0.002700275319512002,None,60.2463656829932,None,60.2463656829932,None,60.2463656829932,None,,,,,,,,,,,,,,,,,,,,,,,,,,,,,,,,,,,,,,001,,,2020_Oct_30_1734,Big5,2020.2.4,59.836302114201246,
,Leading in a friend an amount of money equivalent to one month's income. (F),,,,,,,,,,0,32,32,32,,,,,,,,,,,,,,,,,,,0.2,,,,,,,,,,,,,,,,,,,,,,,,,,60.68006467199302,None,2,0.625,0.0025747143081389368,None,60.68006467199302,None,60.68006467199302,None,60.68006467199302,None,,,,,,,,,,,,,,,,,,,,,,,,,,,,,,,,,,,,,,001,,,2020_Oct_30_1734,Big5,2020.2.4,59.836302114201246,
,Moving to a new city. (S),,,,,,,,,,0,33,33,33,,,,,,,,,,,,,,,,,,,0.2,,,,,,,,,,,,,,,,,,,,,,,,,,61.3304272749956,None,2,0.408,0.004326743306592107,None,61.3304272749956,None,61.3304272749956,None,61.3304272749956,None,,,,,,,,,,,,,,,,,,,,,,,,,,,,,,,,,,,,,,001,,,2020_Oct_30_1734,Big5,2020.2.4,59.836302114201246,
,Never using sunscreen when you sunbathe. (H),,,,,,,,,,0,34,34,34,,,,,,,,,,,,,,,,,,,0.2,,,,,,,,,,,,,,,,,,,,,,,,,,61.76342161098728,None,2,0.578,0.005834557305206545,None,61.76342161098728,None,61.76342161098728,None,61.76342161098728,None,,,,,,,,,,,,,,,,,,,,,,,,,,,,,,,,,,,,,,001,,,2020_Oct_30_1734,Big5,2020.2.4,59.836302114201246,
,Never wearing a seatbelt. (H),,,,,,,,,,0,35,35,35,,,,,,,,,,,,,,,,,,,0.2,,,,,,,,,,,,,,,,,,,,,,,,,,62.36340236799151,None,2,0.607,0.004111082322197035,None,62.36340236799151,None,62.36340236799151,None,62.36340236799151,None,,,,,,,,,,,,,,,,,,,,,,,,,,,,,,,,,,,,,,001,,,2020_Oct_30_1734,Big5,2020.2.4,59.836302114201246,
,Not having a smoke alarm in or outside of your bedroom. (H),,,,,,,,,,0,36,36,36,,,,,,,,,,,,,,,,,,,0.2,,,,,,,,,,,,,,,,,,,,,,,,,,62.996092451998265,None,2,0.409,0.0045127853081794456,None,62.996092451998265,None,62.996092451998265,None,62.996092451998265,None,,,,,,,,,,,,,,,,,,,,,,,,,,,,,,,,,,,,,,001,,,2020_Oct_30_1734,Big5,2020.2.4,59.836302114201246,
,Openly disagreeing with your boss in front of your coworkers. (S),,,,,,,,,,0,37,37,37,,,,,,,,,,,,,,,,,,,0.4,,,,,,,,,,,,,,,,,,,,,,,,,,63.43012669699965,None,3,0.522,0.002044620312517509,None,63.43012669699965,None,63.43012669699965,None,63.43012669699965,None,,,,,,,,,,,,,,,,,,,,,,,,,,,,,,,,,,,,,,001,,,2020_Oct_30_1734,Big5,2020.2.4,59.836302114201246,
,Periodically engaging in a dangerous sport (e.g. mountain climbing or sky diving). (R) ,,,,,,,,,,0,38,38,38,,,,,,,,,,,,,,,,,,,0.4,,,,,,,,,,,,,,,,,,,,,,,,,,63.980363681999734,None,3,0.624,0.0011535233061295003,None,63.980363681999734,None,63.980363681999734,None,63.980363681999734,None,,,,,,,,,,,,,,,,,,,,,,,,,,,,,,,,,,,,,,001,,,2020_Oct_30_1734,Big5,2020.2.4,59.836302114201246,
,Regularly riding your bicycle without a helmet. (H),,,,,,,,,,0,39,39,39,,,,,,,,,,,,,,,,,,,0.4,,,,,,,,,,,,,,,,,,,,,,,,,,64.63042598500033,None,3,0.583,0.008734384304261766,None,64.63042598500033,None,64.63042598500033,None,64.63042598500033,None,,,,,,,,,,,,,,,,,,,,,,,,,,,,,,,,,,,,,,001,,,2020_Oct_30_1734,Big5,2020.2.4,59.836302114201246,
,Shoplifting a small item (e.g. a lipstick or a pen). (E) ,,,,,,,,,,0,40,40,40,,,,,,,,,,,,,,,,,,,0.2,,,,,,,,,,,,,,,,,,,,,,,,,,65.22974012199847,None,2,0.41,0.007745422321022488,None,65.22974012199847,None,65.22974012199847,None,65.22974012199847,None,,,,,,,,,,,,,,,,,,,,,,,,,,,,,,,,,,,,,,001,,,2020_Oct_30_1734,Big5,2020.2.4,59.836302114201246,
,Smoking a pack of cigarettes per day. (H),,,,,,,,,,0,41,41,41,,,,,,,,,,,,,,,,,,,0.2,,,,,,,,,,,,,,,,,,,,,,,,,,65.66375965900079,None,2,0.558,0.005383300318499096,None,65.66375965900079,None,65.66375965900079,None,65.66375965900079,None,,,,,,,,,,,,,,,,,,,,,,,,,,,,,,,,,,,,,,001,,,2020_Oct_30_1734,Big5,2020.2.4,59.836302114201246,
,Speaking your mind about an unpopular issue at a social occasion. (S) ,,,,,,,,,,0,42,42,42,,,,,,,,,,,,,,,,,,,0.2,,,,,,,,,,,,,,,,,,,,,,,,,,66.24655501398956,None,2,0.656,0.001735957310302183,None,66.24655501398956,None,66.24655501398956,None,66.24655501398956,None,,,,,,,,,,,,,,,,,,,,,,,,,,,,,,,,,,,,,,001,,,2020_Oct_30_1734,Big5,2020.2.4,59.836302114201246,
,Spending money impulsively without thinking about the consequences. (F),,,,,,,,,,0,43,43,43,,,,,,,,,,,,,,,,,,,0.2,,,,,,,,,,,,,,,,,,,,,,,,,,66.93033226499392,None,2,0.606,0.00240078431670554,None,66.93033226499392,None,66.93033226499392,None,66.93033226499392,None,,,,,,,,,,,,,,,,,,,,,,,,,,,,,,,,,,,,,,001,,,2020_Oct_30_1734,Big5,2020.2.4,59.836302114201246,
,Stealing an additional TV cable connection. (E) ,,,,,,,,,,0,44,44,44,,,,,,,,,,,,,,,,,,,0.2,,,,,,,,,,,,,,,,,,,,,,,,,,67.56422951699642,None,2,0.611,0.004870742297498509,None,67.56422951699642,None,67.56422951699642,None,67.56422951699642,None,,,,,,,,,,,,,,,,,,,,,,,,,,,,,,,,,,,,,,001,,,2020_Oct_30_1734,Big5,2020.2.4,59.836302114201246,
,Taking a day's income to play the slot-machines at a casino. (F),,,,,,,,,,0,45,45,45,,,,,,,,,,,,,,,,,,,0.2,,,,,,,,,,,,,,,,,,,,,,,,,,68.19666122600029,None,2,0.611,0.0038982863043202087,None,68.19666122600029,None,68.19666122600029,None,68.19666122600029,None,,,,,,,,,,,,,,,,,,,,,,,,,,,,,,,,,,,,,,001,,,2020_Oct_30_1734,Big5,2020.2.4,59.836302114201246,
,Taking a job where you get paid exclusively on a commission basis. (F),,,,,,,,,,0,46,46,46,,,,,,,,,,,,,,,,,,,0.2,,,,,,,,,,,,,,,,,,,,,,,,,,68.83012336499814,None,2,0.412,0.008278136301669292,None,68.83012336499814,None,68.83012336499814,None,68.83012336499814,None,,,,,,,,,,,,,,,,,,,,,,,,,,,,,,,,,,,,,,001,,,2020_Oct_30_1734,Big5,2020.2.4,59.836302114201246,
,Trying bungee jumping. (R),,,,,,,,,,0,47,47,47,,,,,,,,,,,,,,,,,,,0.2,,,,,,,,,,,,,,,,,,,,,,,,,,69.26309138999204,None,2,0.596,0.0070167602971196175,None,69.26309138999204,None,69.26309138999204,None,69.26309138999204,None,,,,,,,,,,,,,,,,,,,,,,,,,,,,,,,,,,,,,,001,,,2020_Oct_30_1734,Big5,2020.2.4,59.836302114201246,
,Using office supplies for your personal business. (E),,,,,,,,,,0,48,48,48,,,,,,,,,,,,,,,,,,,0.4,,,,,,,,,,,,,,,,,,,,,,,,,,69.87963230499008,None,3,0.406,0.0030512633093167096,None,69.87963230499008,None,69.87963230499008,None,69.87963230499008,None,,,,,,,,,,,,,,,,,,,,,,,,,,,,,,,,,,,,,,001,,,2020_Oct_30_1734,Big5,2020.2.4,59.836302114201246,
,Wearing unconventional clothes. (S),,,,,,,,,,0,49,49,49,,,,,,,,,,,,,,,,,,,0.4,,,,,,,,,,,,,,,,,,,,,,,,,,70.31410216999939,None,3,0.644,0.005398775290814228,None,70.31410216999939,None,70.31410216999939,None,70.31410216999939,None,,,,,,,,,,,,,,,,,,,,,,,,,,,,,,,,,,,,,,001,,,2020_Oct_30_1734,Big5,2020.2.4,59.836302114201246,
,Admitting that your tastes are different from those of your friends. (S),,,,,,,,,,,,,,0,0,0,0,,,,,,,,,,,,,,,2.0,,,,,,,,,,,,,,,,,,,,,,,,,,,,,,,,,,,,,,70.9632734379993,None,71.29695359499601,None,71.29695359499601,None,3,0.723,0.0005628463113680482,None,71.29695359499601,None,71.29695359499601,None,,,,,,,,,,,,,,,,,,,,,,,,001,,,2020_Oct_30_1734,Big5,2020.2.4,59.836302114201246,
,Arguing with a friend who has a very different opinion on an issue. (S),,,,,,,,,,,,,,0,1,1,1,,,,,,,,,,,,,,,1.0,,,,,,,,,,,,,,,,,,,,,,,,,,,,,,,,,,,,,,,,72.04728615299973,None,72.04728615299973,None,2,0.591,0.0036239323089830577,None,72.04728615299973,None,72.04728615299973,None,,,,,,,,,,,,,,,,,,,,,,,,001,,,2020_Oct_30_1734,Big5,2020.2.4,59.836302114201246,
,Asking your boss for a raise. (S),,,,,,,,,,,,,,0,2,2,2,,,,,,,,,,,,,,,1.0,,,,,,,,,,,,,,,,,,,,,,,,,,,,,,,,,,,,,,,,72.66407386898936,None,72.66407386898936,None,2,0.634,0.00878277831361629,None,72.66407386898936,None,72.66407386898936,None,,,,,,,,,,,,,,,,,,,,,,,,001,,,2020_Oct_30_1734,Big5,2020.2.4,59.836302114201246,
,Betting a day's income at the horse races. (F),,,,,,,,,,,,,,0,3,3,3,,,,,,,,,,,,,,,1.0,,,,,,,,,,,,,,,,,,,,,,,,,,,,,,,,,,,,,,,,73.33039757699589,None,73.33039757699589,None,2,0.626,0.003930270308046602,None,73.33039757699589,None,73.33039757699589,None,,,,,,,,,,,,,,,,,,,,,,,,001,,,2020_Oct_30_1734,Big5,2020.2.4,59.836302114201246,
,Buying an illegal drug for your own use. (E),,,,,,,,,,,,,,0,4,4,4,,,,,,,,,,,,,,,1.0,,,,,,,,,,,,,,,,,,,,,,,,,,,,,,,,,,,,,,,,73.98034989299776,None,73.98034989299776,None,2,0.409,0.002998599302372895,None,73.98034989299776,None,73.98034989299776,None,,,,,,,,,,,,,,,,,,,,,,,,001,,,2020_Oct_30_1734,Big5,2020.2.4,59.836302114201246,
,Chasing a tornado by car to take photos that you can sell to the press. (R) ,,,,,,,,,,,,,,0,5,5,5,,,,,,,,,,,,,,,1.0,,,,,,,,,,,,,,,,,,,,,,,,,,,,,,,,,,,,,,,,74.41307926899754,None,74.41307926899754,None,2,0.575,0.0048804692924022675,None,74.41307926899754,None,74.41307926899754,None,,,,,,,,,,,,,,,,,,,,,,,,001,,,2020_Oct_30_1734,Big5,2020.2.4,59.836302114201246,
,Cheating a fair amount on your income tax. (E) ,,,,,,,,,,,,,,0,6,6,6,,,,,,,,,,,,,,,1.0,,,,,,,,,,,,,,,,,,,,,,,,,,,,,,,,,,,,,,,,75.01410838100128,None,75.01410838100128,None,2,0.567,0.00546293129445985,None,75.01410838100128,None,75.01410838100128,None,,,,,,,,,,,,,,,,,,,,,,,,001,,,2020_Oct_30_1734,Big5,2020.2.4,59.836302114201246,
,Cheating on an exam. (E) ,,,,,,,,,,,,,,0,7,7,7,,,,,,,,,,,,,,,1.0,,,,,,,,,,,,,,,,,,,,,,,,,,,,,,,,,,,,,,,,75.61404378899897,None,75.61404378899897,None,2,0.611,0.0038221162976697087,None,75.61404378899897,None,75.61404378899897,None,,,,,,,,,,,,,,,,,,,,,,,,001,,,2020_Oct_30_1734,Big5,2020.2.4,59.836302114201246,
,Co-signing a new car loan for a friend. (F),,,,,,,,,,,,,,0,8,8,8,,,,,,,,,,,,,,,1.0,,,,,,,,,,,,,,,,,,,,,,,,,,,,,,,,,,,,,,,,76.24642950299312,None,76.24642950299312,None,2,0.642,0.0035599893162725493,None,76.24642950299312,None,76.24642950299312,None,,,,,,,,,,,,,,,,,,,,,,,,001,,,2020_Oct_30_1734,Big5,2020.2.4,59.836302114201246,
,Dating someone that you are working with. (S),,,,,,,,,,,,,,0,9,9,9,,,,,,,,,,,,,,,1.0,,,,,,,,,,,,,,,,,,,,,,,,,,,,,,,,,,,,,,,,76.91287293798814,None,76.91287293798814,None,2,0.578,0.004708286316599697,None,76.91287293798814,None,76.91287293798814,None,,,,,,,,,,,,,,,,,,,,,,,,001,,,2020_Oct_30_1734,Big5,2020.2.4,59.836302114201246,
,Deciding to share an apartment with someone you don't know well. (S),,,,,,,,,,,,,,0,10,10,10,,,,,,,,,,,,,,,1.0,,,,,,,,,,,,,,,,,,,,,,,,,,,,,,,,,,,,,,,,77.51346940398798,None,77.51346940398798,None,2,0.63,0.007535773329436779,None,77.51346940398798,None,77.51346940398798,None,,,,,,,,,,,,,,,,,,,,,,,,001,,,2020_Oct_30_1734,Big5,2020.2.4,59.836302114201246,
,Disagreeing with your father on a major issue. (S),,,,,,,,,,,,,,0,11,11,11,,,,,,,,,,,,,,,1.0,,,,,,,,,,,,,,,,,,,,,,,,,,,,,,,,,,,,,,,,78.16327869599627,None,78.16327869599627,None,2,0.66,0.0033108993084169924,None,78.16327869599627,None,78.16327869599627,None,,,,,,,,,,,,,,,,,,,,,,,,001,,,2020_Oct_30_1734,Big5,2020.2.4,59.836302114201246,
,Driving home after you had three drinks in the last two hours. (E),,,,,,,,,,,,,,0,12,12,12,,,,,,,,,,,,,,,1.0,,,,,,,,,,,,,,,,,,,,,,,,,,,,,,,,,,,,,,,,78.84670187799202,None,78.84670187799202,None,2,0.574,0.002497308305464685,None,78.84670187799202,None,78.84670187799202,None,,,,,,,,,,,,,,,,,,,,,,,,001,,,2020_Oct_30_1734,Big5,2020.2.4,59.836302114201246,
,Eating 'expired' food products that still 'look okay'. (H),,,,,,,,,,,,,,0,13,13,13,,,,,,,,,,,,,,,2.0,,,,,,,,,,,,,,,,,,,,,,,,,,,,,,,,,,,,,,,,79.44698721299937,None,79.44698721299937,None,3,0.625,0.003879178300849162,None,79.44698721299937,None,79.44698721299937,None,,,,,,,,,,,,,,,,,,,,,,,,001,,,2020_Oct_30_1734,Big5,2020.2.4,59.836302114201246,
,Exploring an unknown city or section of town. (R) ,,,,,,,,,,,,,,0,14,14,14,,,,,,,,,,,,,,,2.0,,,,,,,,,,,,,,,,,,,,,,,,,,,,,,,,,,,,,,,,80.09720004998962,None,80.09720004998962,None,3,0.644,0.005447399293188937,None,80.09720004998962,None,80.09720004998962,None,,,,,,,,,,,,,,,,,,,,,,,,001,,,2020_Oct_30_1734,Big5,2020.2.4,59.836302114201246,
,Forging somebody's signature. (E),,,,,,,,,,,,,,0,15,15,15,,,,,,,,,,,,,,,2.0,,,,,,,,,,,,,,,,,,,,,,,,,,,,,,,,,,,,,,,,80.76372811099282,None,80.76372811099282,None,3,0.641,0.005136153296916746,None,80.76372811099282,None,80.76372811099282,None,,,,,,,,,,,,,,,,,,,,,,,,001,,,2020_Oct_30_1734,Big5,2020.2.4,59.836302114201246,
,Frequent binge drinking. (H),,,,,,,,,,,,,,0,16,16,16,,,,,,,,,,,,,,,2.0,,,,,,,,,,,,,,,,,,,,,,,,,,,,,,,,,,,,,,,,81.43066333599563,None,81.43066333599563,None,3,0.412,0.007527961308369413,None,81.43066333599563,None,81.43066333599563,None,,,,,,,,,,,,,,,,,,,,,,,,001,,,2020_Oct_30_1734,Big5,2020.2.4,59.836302114201246,
,Going camping in the wild. (R),,,,,,,,,,,,,,0,17,17,17,,,,,,,,,,,,,,,2.0,,,,,,,,,,,,,,,,,,,,,,,,,,,,,,,,,,,,,,,,81.86296356198727,None,81.86296356198727,None,3,0.574,0.005651706305798143,None,81.86296356198727,None,81.86296356198727,None,,,,,,,,,,,,,,,,,,,,,,,,001,,,2020_Oct_30_1734,Big5,2020.2.4,59.836302114201246,
,Going down a ski run that is too hard or closed. (R),,,,,,,,,,,,,,0,18,18,18,,,,,,,,,,,,,,,2.0,,,,,,,,,,,,,,,,,,,,,,,,,,,,,,,,,,,,,,,,82.46310250399983,None,82.46310250399983,None,3,0.41,0.005355484303436242,None,82.46310250399983,None,82.46310250399983,None,,,,,,,,,,,,,,,,,,,,,,,,001,,,2020_Oct_30_1734,Big5,2020.2.4,59.836302114201246,
,Going on a safari in Kenya. (R) ,,,,,,,,,,,,,,0,19,19,19,,,,,,,,,,,,,,,2.0,,,,,,,,,,,,,,,,,,,,,,,,,,,,,,,,,,,,,,,,82.89603569298924,None,82.89603569298924,None,3,0.69,0.0038268733042059466,None,82.89603569298924,None,82.89603569298924,None,,,,,,,,,,,,,,,,,,,,,,,,001,,,2020_Oct_30_1734,Big5,2020.2.4,59.836302114201246,
,Going on a two-week vacation in a foreign country without booking accommodations ahead. (R),,,,,,,,,,,,,,0,20,20,20,,,,,,,,,,,,,,,2.0,,,,,,,,,,,,,,,,,,,,,,,,,,,,,,,,,,,,,,,,83.61318676699011,None,83.61318676699011,None,3,0.623,0.0012947443028679118,None,83.61318676699011,None,83.61318676699011,None,,,,,,,,,,,,,,,,,,,,,,,,001,,,2020_Oct_30_1734,Big5,2020.2.4,59.836302114201246,
,Going whitewater rafting at high water in the spring. (R),,,,,,,,,,,,,,0,21,21,21,,,,,,,,,,,,,,,2.0,,,,,,,,,,,,,,,,,,,,,,,,,,,,,,,,,,,,,,,,84.2629942529893,None,84.2629942529893,None,3,0.409,0.0030418032984016463,None,84.2629942529893,None,84.2629942529893,None,,,,,,,,,,,,,,,,,,,,,,,,001,,,2020_Oct_30_1734,Big5,2020.2.4,59.836302114201246,
,Ignoring some persistent physical pain by not going to the doctor. (H),,,,,,,,,,,,,,0,22,22,22,,,,,,,,,,,,,,,2.0,,,,,,,,,,,,,,,,,,,,,,,,,,,,,,,,,,,,,,,,84.69629327399889,None,84.69629327399889,None,3,0.624,0.0016249713080469519,None,84.69629327399889,None,84.69629327399889,None,,,,,,,,,,,,,,,,,,,,,,,,001,,,2020_Oct_30_1734,Big5,2020.2.4,59.836302114201246,
,Illegally copying a piece of software. (E),,,,,,,,,,,,,,0,23,23,23,,,,,,,,,,,,,,,2.0,,,,,,,,,,,,,,,,,,,,,,,,,,,,,,,,,,,,,,,,85.34663178298797,None,85.34663178298797,None,3,0.663,0.00875906931469217,None,85.34663178298797,None,85.34663178298797,None,,,,,,,,,,,,,,,,,,,,,,,,001,,,2020_Oct_30_1734,Big5,2020.2.4,59.836302114201246,
,Taking a medical drug that has a high likelihood of negative side effects. (H),,,,,,,,,,,,,,0,24,24,24,,,,,,,,,,,,,,,2.0,,,,,,,,,,,,,,,,,,,,,,,,,,,,,,,,,,,,,,,,86.0299892579933,None,86.0299892579933,None,3,0.679,0.003996662315330468,None,86.0299892579933,None,86.0299892579933,None,,,,,,,,,,,,,,,,,,,,,,,,001,,,2020_Oct_30_1734,Big5,2020.2.4,59.836302114201246,
,Traveling on a commercial airplane. (R) ,,,,,,,,,,,,,,0,25,25,25,,,,,,,,,,,,,,,1.0,,,,,,,,,,,,,,,,,,,,,,,,,,,,,,,,,,,,,,,,86.72968591300014,None,86.72968591300014,None,2,0.658,0.004194020293653011,None,86.72968591300014,None,86.72968591300014,None,,,,,,,,,,,,,,,,,,,,,,,,001,,,2020_Oct_30_1734,Big5,2020.2.4,59.836302114201246,
,Plagiarizing a term paper. (E) ,,,,,,,,,,,,,,0,26,26,26,,,,,,,,,,,,,,,1.0,,,,,,,,,,,,,,,,,,,,,,,,,,,,,,,,,,,,,,,,87.41321302599681,None,87.41321302599681,None,2,0.571,0.006750193308107555,None,87.41321302599681,None,87.41321302599681,None,,,,,,,,,,,,,,,,,,,,,,,,001,,,2020_Oct_30_1734,Big5,2020.2.4,59.836302114201246,
,Engaging in unprotected sex. (H),,,,,,,,,,,,,,0,27,27,27,,,,,,,,,,,,,,,1.0,,,,,,,,,,,,,,,,,,,,,,,,,,,,,,,,,,,,,,,,88.0133291050006,None,88.0133291050006,None,2,0.559,0.00489103130530566,None,88.0133291050006,None,88.0133291050006,None,,,,,,,,,,,,,,,,,,,,,,,,001,,,2020_Oct_30_1734,Big5,2020.2.4,59.836302114201246,
,Investing 10% of your annual income in a blue chip stock. (F),,,,,,,,,,,,,,0,28,28,28,,,,,,,,,,,,,,,1.0,,,,,,,,,,,,,,,,,,,,,,,,,,,,,,,,,,,,,,,,88.5963826340012,None,88.5963826340012,None,2,0.405,0.002418719304841943,None,88.5963826340012,None,88.5963826340012,None,,,,,,,,,,,,,,,,,,,,,,,,001,,,2020_Oct_30_1734,Big5,2020.2.4,59.836302114201246,
,Investing 10% of your annual income in a very speculative stock. (F),,,,,,,,,,,,,,0,29,29,29,,,,,,,,,,,,,,,1.0,,,,,,,,,,,,,,,,,,,,,,,,,,,,,,,,,,,,,,,,89.02986773599696,None,89.02986773599696,None,2,0.42,0.001139773303293623,None,89.02986773599696,None,89.02986773599696,None,,,,,,,,,,,,,,,,,,,,,,,,001,,,2020_Oct_30_1734,Big5,2020.2.4,59.836302114201246,
,Investing 10% of your annual income in government bonds (treasury bills). (F),,,,,,,,,,,,,,0,30,30,30,,,,,,,,,,,,,,,1.0,,,,,,,,,,,,,,,,,,,,,,,,,,,,,,,,,,,,,,,,89.47955690599338,None,89.47955690599338,None,2,0.576,0.00399290029599797,None,89.47955690599338,None,89.47955690599338,None,,,,,,,,,,,,,,,,,,,,,,,,001,,,2020_Oct_30_1734,Big5,2020.2.4,59.836302114201246,
,Investing in a business that has a good chance of failing. (F),,,,,,,,,,,,,,0,31,31,31,,,,,,,,,,,,,,,1.0,,,,,,,,,,,,,,,,,,,,,,,,,,,,,,,,,,,,,,,,90.08004387999244,None,90.08004387999244,None,2,0.573,0.0030404592980630696,None,90.08004387999244,None,90.08004387999244,None,,,,,,,,,,,,,,,,,,,,,,,,001,,,2020_Oct_30_1734,Big5,2020.2.4,59.836302114201246,
,Leading in a friend an amount of money equivalent to one month's income. (F),,,,,,,,,,,,,,0,32,32,32,,,,,,,,,,,,,,,1.0,,,,,,,,,,,,,,,,,,,,,,,,,,,,,,,,,,,,,,,,90.67985776400019,None,90.67985776400019,None,2,0.674,0.004152358305873349,None,90.67985776400019,None,90.67985776400019,None,,,,,,,,,,,,,,,,,,,,,,,,001,,,2020_Oct_30_1734,Big5,2020.2.4,59.836302114201246,
,Moving to a new city. (S),,,,,,,,,,,,,,0,33,33,33,,,,,,,,,,,,,,,1.0,,,,,,,,,,,,,,,,,,,,,,,,,,,,,,,,,,,,,,,,91.37967610399937,None,91.37967610399937,None,2,0.475,0.004352730305981822,None,91.37967610399937,None,91.37967610399937,None,,,,,,,,,,,,,,,,,,,,,,,,001,,,2020_Oct_30_1734,Big5,2020.2.4,59.836302114201246,
,Never using sunscreen when you sunbathe. (H),,,,,,,,,,,,,,0,34,34,34,,,,,,,,,,,,,,,1.0,,,,,,,,,,,,,,,,,,,,,,,,,,,,,,,,,,,,,,,,91.8795921899873,None,91.8795921899873,None,2,0.594,0.005962754308711737,None,91.8795921899873,None,91.8795921899873,None,,,,,,,,,,,,,,,,,,,,,,,,001,,,2020_Oct_30_1734,Big5,2020.2.4,59.836302114201246,
,Never wearing a seatbelt. (H),,,,,,,,,,,,,,0,35,35,35,,,,,,,,,,,,,,,1.0,,,,,,,,,,,,,,,,,,,,,,,,,,,,,,,,,,,,,,,,92.49612359699677,None,92.49612359699677,None,2,0.548,0.0058826913009397686,None,92.49612359699677,None,92.49612359699677,None,,,,,,,,,,,,,,,,,,,,,,,,001,,,2020_Oct_30_1734,Big5,2020.2.4,59.836302114201246,
,Not having a smoke alarm in or outside of your bedroom. (H),,,,,,,,,,,,,,0,36,36,36,,,,,,,,,,,,,,,1.0,,,,,,,,,,,,,,,,,,,,,,,,,,,,,,,,,,,,,,,,93.07994577600039,None,93.07994577600039,None,2,0.856,0.0017944643186638132,None,93.07994577600039,None,93.07994577600039,None,,,,,,,,,,,,,,,,,,,,,,,,001,,,2020_Oct_30_1734,Big5,2020.2.4,59.836302114201246,
,Openly disagreeing with your boss in front of your coworkers. (S),,,,,,,,,,,,,,0,37,37,37,,,,,,,,,,,,,,,2.0,,,,,,,,,,,,,,,,,,,,,,,,,,,,,,,,,,,,,,,,93.96345238698996,None,93.96345238698996,None,3,0.661,0.005281349323922768,None,93.96345238698996,None,93.96345238698996,None,,,,,,,,,,,,,,,,,,,,,,,,001,,,2020_Oct_30_1734,Big5,2020.2.4,59.836302114201246,
,Periodically engaging in a dangerous sport (e.g. mountain climbing or sky diving). (R) ,,,,,,,,,,,,,,0,38,38,38,,,,,,,,,,,,,,,2.0,,,,,,,,,,,,,,,,,,,,,,,,,,,,,,,,,,,,,,,,94.64659655599098,None,94.64659655599098,None,3,0.674,0.003919144306564704,None,94.64659655599098,None,94.64659655599098,None,,,,,,,,,,,,,,,,,,,,,,,,001,,,2020_Oct_30_1734,Big5,2020.2.4,59.836302114201246,
,Regularly riding your bicycle without a helmet. (H),,,,,,,,,,,,,,0,39,39,39,,,,,,,,,,,,,,,2.0,,,,,,,,,,,,,,,,,,,,,,,,,,,,,,,,,,,,,,,,95.34590776199184,None,95.34590776199184,None,3,0.424,0.00339552630612161,None,95.34590776199184,None,95.34590776199184,None,,,,,,,,,,,,,,,,,,,,,,,,001,,,2020_Oct_30_1734,Big5,2020.2.4,59.836302114201246,
,Shoplifting a small item (e.g. a lipstick or a pen). (E) ,,,,,,,,,,,,,,0,40,40,40,,,,,,,,,,,,,,,2.0,,,,,,,,,,,,,,,,,,,,,,,,,,,,,,,,,,,,,,,,95.79626347799785,None,95.79626347799785,None,3,0.645,0.004792162319063209,None,95.79626347799785,None,95.79626347799785,None,,,,,,,,,,,,,,,,,,,,,,,,001,,,2020_Oct_30_1734,Big5,2020.2.4,59.836302114201246,
,Smoking a pack of cigarettes per day. (H),,,,,,,,,,,,,,0,41,41,41,,,,,,,,,,,,,,,2.0,,,,,,,,,,,,,,,,,,,,,,,,,,,,,,,,,,,,,,,,96.46244369298802,None,96.46244369298802,None,3,0.409,0.005496416299138218,None,96.46244369298802,None,96.46244369298802,None,,,,,,,,,,,,,,,,,,,,,,,,001,,,2020_Oct_30_1734,Big5,2020.2.4,59.836302114201246,
,Speaking your mind about an unpopular issue at a social occasion. (S) ,,,,,,,,,,,,,,0,42,42,42,,,,,,,,,,,,,,,2.0,,,,,,,,,,,,,,,,,,,,,,,,,,,,,,,,,,,,,,,,96.89639091199206,None,96.89639091199206,None,3,0.442,0.0025578583154128864,None,96.89639091199206,None,96.89639091199206,None,,,,,,,,,,,,,,,,,,,,,,,,001,,,2020_Oct_30_1734,Big5,2020.2.4,59.836302114201246,
,Spending money impulsively without thinking about the consequences. (F),,,,,,,,,,,,,,0,43,43,43,,,,,,,,,,,,,,,1.0,,,,,,,,,,,,,,,,,,,,,,,,,,,,,,,,,,,,,,,,97.362794501998,None,97.362794501998,None,2,0.412,0.006673878291621804,None,97.362794501998,None,97.362794501998,None,,,,,,,,,,,,,,,,,,,,,,,,001,,,2020_Oct_30_1734,Big5,2020.2.4,59.836302114201246,
,Stealing an additional TV cable connection. (E) ,,,,,,,,,,,,,,0,44,44,44,,,,,,,,,,,,,,,1.0,,,,,,,,,,,,,,,,,,,,,,,,,,,,,,,,,,,,,,,,97.79621327698987,None,97.79621327698987,None,2,0.543,0.004804356314707547,None,97.79621327698987,None,97.79621327698987,None,,,,,,,,,,,,,,,,,,,,,,,,001,,,2020_Oct_30_1734,Big5,2020.2.4,59.836302114201246,
,Taking a day's income to play the slot-machines at a casino. (F),,,,,,,,,,,,,,0,45,45,45,,,,,,,,,,,,,,,1.0,,,,,,,,,,,,,,,,,,,,,,,,,,,,,,,,,,,,,,,,98.36351122199267,None,98.36351122199267,None,2,0.427,0.005541391292354092,None,98.36351122199267,None,98.36351122199267,None,,,,,,,,,,,,,,,,,,,,,,,,001,,,2020_Oct_30_1734,Big5,2020.2.4,59.836302114201246,
,Taking a job where you get paid exclusively on a commission basis. (F),,,,,,,,,,,,,,0,46,46,46,,,,,,,,,,,,,,,1.0,,,,,,,,,,,,,,,,,,,,,,,,,,,,,,,,,,,,,,,,98.8132659749972,None,98.8132659749972,None,2,0.409,0.003577645300538279,None,98.8132659749972,None,98.8132659749972,None,,,,,,,,,,,,,,,,,,,,,,,,001,,,2020_Oct_30_1734,Big5,2020.2.4,59.836302114201246,
,Trying bungee jumping. (R),,,,,,,,,,,,,,0,47,47,47,,,,,,,,,,,,,,,1.0,,,,,,,,,,,,,,,,,,,,,,,,,,,,,,,,,,,,,,,,99.26304215998971,None,99.26304215998971,None,2,0.694,0.005414217303041369,None,99.26304215998971,None,99.26304215998971,None,,,,,,,,,,,,,,,,,,,,,,,,001,,,2020_Oct_30_1734,Big5,2020.2.4,59.836302114201246,
,Using office supplies for your personal business. (E),,,,,,,,,,,,,,0,48,48,48,,,,,,,,,,,,,,,1.0,,,,,,,,,,,,,,,,,,,,,,,,,,,,,,,,,,,,,,,,99.96364313199592,None,99.96364313199592,None,2,0.408,0.003559504315489903,None,99.96364313199592,None,99.96364313199592,None,,,,,,,,,,,,,,,,,,,,,,,,001,,,2020_Oct_30_1734,Big5,2020.2.4,59.836302114201246,
,Wearing unconventional clothes. (S),,,,,,,,,,,,,,0,49,49,49,,,,,,,,,,,,,,,1.0,,,,,,,,,,,,,,,,,,,,,,,,,,,,,,,,,,,,,,,,100.396591643992,None,100.396591643992,None,2,0.661,0.005669466307153925,None,100.396591643992,None,100.396591643992,None,,,,,,,,,,,,,,,,,,,,,,,,001,,,2020_Oct_30_1734,Big5,2020.2.4,59.836302114201246,
,,Tends to be quiet.,,,,,,,,,,,,,,,,,0,0,0,0,,,,,,,,,,,2.0,,,,,,,,,,,,,,,,,,,,,,,,,,,,,,,,,,,,,,,,,,,,,,,,,,,,101.06343380299222,None,3,1.038,0.0008502723067067564,None,101.18060529200011,None,101.18060529200011,None,101.18060529200011,None,101.18060529200011,None,101.18060529200011,None,101.18060529200011,None,101.18060529200011,None,,,,001,,,2020_Oct_30_1734,Big5,2020.2.4,59.836302114201246,
,,"Is compassionate, has a soft heart.",,,,,,,,,,,,,,,,,0,1,1,1,,,,,,,,,,,2.0,,,,,,,,,,,,,,,,,,,,,,,,,,,,,,,,,,,,,,,,,,,,,,,,,,,,,,3,0.462,0.0051590322982519865,None,102.24662024198915,None,102.24662024198915,None,102.24662024198915,None,102.24662024198915,None,102.24662024198915,None,102.24662024198915,None,102.24662024198915,None,,,,001,,,2020_Oct_30_1734,Big5,2020.2.4,59.836302114201246,
,,Tends to be disorganized.,,,,,,,,,,,,,,,,,0,2,2,2,,,,,,,,,,,2.0,,,,,,,,,,,,,,,,,,,,,,,,,,,,,,,,,,,,,,,,,,,,,,,,,,,,,,3,0.411,0.00845474429661408,None,102.72934550099308,None,102.72934550099308,None,102.72934550099308,None,102.72934550099308,None,102.72934550099308,None,102.72934550099308,None,102.72934550099308,None,,,,001,,,2020_Oct_30_1734,Big5,2020.2.4,59.836302114201246,
,,Worries a lot.,,,,,,,,,,,,,,,,,0,3,3,3,,,,,,,,,,,2.0,,,,,,,,,,,,,,,,,,,,,,,,,,,,,,,,,,,,,,,,,,,,,,,,,,,,,,3,0.492,0.004794662308995612,None,103.1628188679897,None,103.1628188679897,None,103.1628188679897,None,103.1628188679897,None,103.1628188679897,None,103.1628188679897,None,103.1628188679897,None,,,,001,,,2020_Oct_30_1734,Big5,2020.2.4,59.836302114201246,
,,"Is fascinated by art, music, or literature.",,,,,,,,,,,,,,,,,0,4,4,4,,,,,,,,,,,2.0,,,,,,,,,,,,,,,,,,,,,,,,,,,,,,,,,,,,,,,,,,,,,,,,,,,,,,3,0.542,0.004935701304930262,None,103.67989035099163,None,103.67989035099163,None,103.67989035099163,None,103.67989035099163,None,103.67989035099163,None,103.67989035099163,None,103.67989035099163,None,,,,001,,,2020_Oct_30_1734,Big5,2020.2.4,59.836302114201246,
,,"Is dominant, acts as a leader.",,,,,,,,,,,,,,,,,0,5,5,5,,,,,,,,,,,2.0,,,,,,,,,,,,,,,,,,,,,,,,,,,,,,,,,,,,,,,,,,,,,,,,,,,,,,3,0.51,0.0029091143078403547,None,104.24584634799976,None,104.24584634799976,None,104.24584634799976,None,104.24584634799976,None,104.24584634799976,None,104.24584634799976,None,104.24584634799976,None,,,,001,,,2020_Oct_30_1734,Big5,2020.2.4,59.836302114201246,
,,Is sometimes rude to others.,,,,,,,,,,,,,,,,,0,6,6,6,,,,,,,,,,,2.0,,,,,,,,,,,,,,,,,,,,,,,,,,,,,,,,,,,,,,,,,,,,,,,,,,,,,,3,0.864,0.008772785309702158,None,104.79671812799643,None,104.79671812799643,None,104.79671812799643,None,104.79671812799643,None,104.79671812799643,None,104.79671812799643,None,104.79671812799643,None,,,,001,,,2020_Oct_30_1734,Big5,2020.2.4,59.836302114201246,
,,Has difficulty getting started on tasks.,,,,,,,,,,,,,,,,,0,7,7,7,,,,,,,,,,,2.0,,,,,,,,,,,,,,,,,,,,,,,,,,,,,,,,,,,,,,,,,,,,,,,,,,,,,,3,0.526,0.004550115307210945,None,105.67910786699213,None,105.67910786699213,None,105.67910786699213,None,105.67910786699213,None,105.67910786699213,None,105.67910786699213,None,105.67910786699213,None,,,,001,,,2020_Oct_30_1734,Big5,2020.2.4,59.836302114201246,
,,"Tends to feel depressed, blue.",,,,,,,,,,,,,,,,,0,8,8,8,,,,,,,,,,,2.0,,,,,,,,,,,,,,,,,,,,,,,,,,,,,,,,,,,,,,,,,,,,,,,,,,,,,,3,0.561,0.005934466316830367,None,106.22922947299958,None,106.22922947299958,None,106.22922947299958,None,106.22922947299958,None,106.22922947299958,None,106.22922947299958,None,106.22922947299958,None,,,,001,,,2020_Oct_30_1734,Big5,2020.2.4,59.836302114201246,
,,Has little interest in abstract ideas.,,,,,,,,,,,,,,,,,0,9,9,9,,,,,,,,,,,2.0,,,,,,,,,,,,,,,,,,,,,,,,,,,,,,,,,,,,,,,,,,,,,,,,,,,,,,3,0.978,0.004245670323143713,None,106.81346487299015,None,106.81346487299015,None,106.81346487299015,None,106.81346487299015,None,106.81346487299015,None,106.81346487299015,None,106.81346487299015,None,,,,001,,,2020_Oct_30_1734,Big5,2020.2.4,59.836302114201246,
,,Is full of energy. ,,,,,,,,,,,,,,,,,0,10,10,10,,,,,,,,,,,2.0,,,,,,,,,,,,,,,,,,,,,,,,,,,,,,,,,,,,,,,,,,,,,,,,,,,,,,3,0.413,0.007998621309525333,None,107.81280076300027,None,107.81280076300027,None,107.81280076300027,None,107.81280076300027,None,107.81280076300027,None,107.81280076300027,None,107.81280076300027,None,,,,001,,,2020_Oct_30_1734,Big5,2020.2.4,59.836302114201246,
,,Assumes the best about people.,,,,,,,,,,,,,,,,,0,11,11,11,,,,,,,,,,,2.0,,,,,,,,,,,,,,,,,,,,,,,,,,,,,,,,,,,,,,,,,,,,,,,,,,,,,,3,0.528,0.0036785013071494177,None,108.2462425709964,None,108.2462425709964,None,108.2462425709964,None,108.2462425709964,None,108.2462425709964,None,108.2462425709964,None,108.2462425709964,None,,,,001,,,2020_Oct_30_1734,Big5,2020.2.4,59.836302114201246,
,,"Is reliable, can always be counted on.",,,,,,,,,,,,,,,,,0,12,12,12,,,,,,,,,,,2.0,,,,,,,,,,,,,,,,,,,,,,,,,,,,,,,,,,,,,,,,,,,,,,,,,,,,,,3,0.453,0.008881166286300868,None,108.79674634498951,None,108.79674634498951,None,108.79674634498951,None,108.79674634498951,None,108.79674634498951,None,108.79674634498951,None,108.79674634498951,None,,,,001,,,2020_Oct_30_1734,Big5,2020.2.4,59.836302114201246,
,,"Is emotionally stable, not easily upset.",,,,,,,,,,,,,,,,,0,13,13,13,,,,,,,,,,,2.0,,,,,,,,,,,,,,,,,,,,,,,,,,,,,,,,,,,,,,,,,,,,,,,,,,,,,,3,0.462,0.0033608853118494153,None,109.27928245298972,None,109.27928245298972,None,109.27928245298972,None,109.27928245298972,None,109.27928245298972,None,109.27928245298972,None,109.27928245298972,None,,,,001,,,2020_Oct_30_1734,Big5,2020.2.4,59.836302114201246,
,,"Is original, comes up with new ideas.",,,,,,,,,,,,,,,,,0,14,14,14,,,,,,,,,,,2.0,,,,,,,,,,,,,,,,,,,,,,,,,,,,,,,,,,,,,,,,,,,,,,,,,,,,,,3,0.407,0.0033867063029902056,None,109.78007326099032,None,109.78007326099032,None,109.78007326099032,None,109.78007326099032,None,109.78007326099032,None,109.78007326099032,None,109.78007326099032,None,,,,001,,,2020_Oct_30_1734,Big5,2020.2.4,59.836302114201246,
,,"Is outgoing, sociable.",,,,,,,,,,,,,,,,,0,15,15,15,,,,,,,,,,,2.0,,,,,,,,,,,,,,,,,,,,,,,,,,,,,,,,,,,,,,,,,,,,,,,,,,,,,,3,0.41,0.005283865306410007,None,110.21288748299412,None,110.21288748299412,None,110.21288748299412,None,110.21288748299412,None,110.21288748299412,None,110.21288748299412,None,110.21288748299412,None,,,,001,,,2020_Oct_30_1734,Big5,2020.2.4,59.836302114201246,
,,Can be cold and uncaring.,,,,,,,,,,,,,,,,,0,16,16,16,,,,,,,,,,,2.0,,,,,,,,,,,,,,,,,,,,,,,,,,,,,,,,,,,,,,,,,,,,,,,,,,,,,,3,0.465,0.006962983316043392,None,110.64615340800083,None,110.64615340800083,None,110.64615340800083,None,110.64615340800083,None,110.64615340800083,None,110.64615340800083,None,110.64615340800083,None,,,,001,,,2020_Oct_30_1734,Big5,2020.2.4,59.836302114201246,
,,Keep things neat and tidy.,,,,,,,,,,,,,,,,,0,17,17,17,,,,,,,,,,,2.0,,,,,,,,,,,,,,,,,,,,,,,,,,,,,,,,,,,,,,,,,,,,,,,,,,,,,,3,0.513,0.007581023310194723,None,111.12914758399711,None,111.12914758399711,None,111.12914758399711,None,111.12914758399711,None,111.12914758399711,None,111.12914758399711,None,111.12914758399711,None,,,,001,,,2020_Oct_30_1734,Big5,2020.2.4,59.836302114201246,
,,"Is relaxed, handles stress well. ",,,,,,,,,,,,,,,,,0,18,18,18,,,,,,,,,,,2.0,,,,,,,,,,,,,,,,,,,,,,,,,,,,,,,,,,,,,,,,,,,,,,,,,,,,,,3,0.546,0.0046003683091839775,None,111.66258233400004,None,111.66258233400004,None,111.66258233400004,None,111.66258233400004,None,111.66258233400004,None,111.66258233400004,None,111.66258233400004,None,,,,001,,,2020_Oct_30_1734,Big5,2020.2.4,59.836302114201246,
,,Has few artistic interests.,,,,,,,,,,,,,,,,,0,19,19,19,,,,,,,,,,,2.0,,,,,,,,,,,,,,,,,,,,,,,,,,,,,,,,,,,,,,,,,,,,,,,,,,,,,,3,0.407,0.004026961294584908,None,112.24671263799246,None,112.24671263799246,None,112.24671263799246,None,112.24671263799246,None,112.24671263799246,None,112.24671263799246,None,112.24671263799246,None,,,,001,,,2020_Oct_30_1734,Big5,2020.2.4,59.836302114201246,
,,Prefers to have others take charge.,,,,,,,,,,,,,,,,,0,20,20,20,,,,,,,,,,,2.0,,,,,,,,,,,,,,,,,,,,,,,,,,,,,,,,,,,,,,,,,,,,,,,,,,,,,,3,0.49,0.0030566782952519134,None,112.67948417799198,None,112.67948417799198,None,112.67948417799198,None,112.67948417799198,None,112.67948417799198,None,112.67948417799198,None,112.67948417799198,None,,,,001,,,2020_Oct_30_1734,Big5,2020.2.4,59.836302114201246,
,,"Is respectful, treats others with respect.",,,,,,,,,,,,,,,,,0,21,21,21,,,,,,,,,,,2.0,,,,,,,,,,,,,,,,,,,,,,,,,,,,,,,,,,,,,,,,,,,,,,,,,,,,,,3,0.478,0.004975613308488391,None,113.19633918198815,None,113.19633918198815,None,113.19633918198815,None,113.19633918198815,None,113.19633918198815,None,113.19633918198815,None,113.19633918198815,None,,,,001,,,2020_Oct_30_1734,Big5,2020.2.4,59.836302114201246,
,,"Is persistent, works until the task is finished.",,,,,,,,,,,,,,,,,0,22,22,22,,,,,,,,,,,2.0,,,,,,,,,,,,,,,,,,,,,,,,,,,,,,,,,,,,,,,,,,,,,,,,,,,,,,3,0.404,0.0027848142926814035,None,113.69692850900174,None,113.69692850900174,None,113.69692850900174,None,113.69692850900174,None,113.69692850900174,None,113.69692850900174,None,113.69692850900174,None,,,,001,,,2020_Oct_30_1734,Big5,2020.2.4,59.836302114201246,
,,"Feels secure, comfortable with self.",,,,,,,,,,,,,,,,,0,23,23,23,,,,,,,,,,,2.0,,,,,,,,,,,,,,,,,,,,,,,,,,,,,,,,,,,,,,,,,,,,,,,,,,,,,,3,0.443,0.005645979297696613,None,114.12956832099007,None,114.12956832099007,None,114.12956832099007,None,114.12956832099007,None,114.12956832099007,None,114.12956832099007,None,114.12956832099007,None,,,,001,,,2020_Oct_30_1734,Big5,2020.2.4,59.836302114201246,
,,"Is complex, a deep thinker.",,,,,,,,,,,,,,,,,0,24,24,24,,,,,,,,,,,1.0,,,,,,,,,,,,,,,,,,,,,,,,,,,,,,,,,,,,,,,,,,,,,,,,,,,,,,2,0.758,0.0042298483167542145,None,114.59591647799243,None,114.59591647799243,None,114.59591647799243,None,114.59591647799243,None,114.59591647799243,None,114.59591647799243,None,114.59591647799243,None,,,,001,,,2020_Oct_30_1734,Big5,2020.2.4,59.836302114201246,
,,Is less active than other people.,,,,,,,,,,,,,,,,,0,25,25,25,,,,,,,,,,,1.0,,,,,,,,,,,,,,,,,,,,,,,,,,,,,,,,,,,,,,,,,,,,,,,,,,,,,,2,0.478,0.006373468320816755,None,115.38003721099813,None,115.38003721099813,None,115.38003721099813,None,115.38003721099813,None,115.38003721099813,None,115.38003721099813,None,115.38003721099813,None,,,,001,,,2020_Oct_30_1734,Big5,2020.2.4,59.836302114201246,
,,Tends to find fault with others.,,,,,,,,,,,,,,,,,0,26,26,26,,,,,,,,,,,1.0,,,,,,,,,,,,,,,,,,,,,,,,,,,,,,,,,,,,,,,,,,,,,,,,,,,,,,2,0.477,0.006625494293984957,None,115.87971030999324,None,115.87971030999324,None,115.87971030999324,None,115.87971030999324,None,115.87971030999324,None,115.87971030999324,None,115.87971030999324,None,,,,001,,,2020_Oct_30_1734,Big5,2020.2.4,59.836302114201246,
,,Can be somewhat careless.,,,,,,,,,,,,,,,,,0,27,27,27,,,,,,,,,,,1.0,,,,,,,,,,,,,,,,,,,,,,,,,,,,,,,,,,,,,,,,,,,,,,,,,,,,,,2,0.544,0.005770713309175335,None,116.37993972899858,None,116.37993972899858,None,116.37993972899858,None,116.37993972899858,None,116.37993972899858,None,116.37993972899858,None,116.37993972899858,None,,,,001,,,2020_Oct_30_1734,Big5,2020.2.4,59.836302114201246,
,,"Is temperamental, gets emotional easily.",,,,,,,,,,,,,,,,,0,28,28,28,,,,,,,,,,,1.0,,,,,,,,,,,,,,,,,,,,,,,,,,,,,,,,,,,,,,,,,,,,,,,,,,,,,,2,0.411,0.0047811933036427945,None,116.94577338999079,None,116.94577338999079,None,116.94577338999079,None,116.94577338999079,None,116.94577338999079,None,116.94577338999079,None,116.94577338999079,None,,,,001,,,2020_Oct_30_1734,Big5,2020.2.4,59.836302114201246,
,,Has little creativity. ,,,,,,,,,,,,,,,,,0,29,29,29,,,,,,,,,,,1.0,,,,,,,,,,,,,,,,,,,,,,,,,,,,,,,,,,,,,,,,,,,,,,,,,,,,,,2,0.541,0.004342263302532956,None,117.3791161889967,None,117.3791161889967,None,117.3791161889967,None,117.3791161889967,None,117.3791161889967,None,117.3791161889967,None,117.3791161889967,None,,,,001,,,2020_Oct_30_1734,Big5,2020.2.4,59.836302114201246,
,,,,,,,,,,,,,,,,,,,,,,,,,,,,,,,,,,,,,,,,,,,,,,,,,,,,,,,,,,,,,,,,,,,,,,,,,,,,,,,,,,,,,,,,,,,,,,,,,,,,,,,,,117.92910683399532,None,,,,,,,,,
